"Time (s)","Acceleration x (m/s^2)","Acceleration y (m/s^2)","Acceleration z (m/s^2)"
9.752453000E-3,2.338950157E0,2.844000101E0,7.731000423E0
4.232431200E-2,3.832950115E0,1.981950045E0,8.152950287E0
5.832431400E-2,4.216050148E0,1.063050032E0,7.272000313E0
7.435050900E-2,4.560000420E0,6.990000606E-1,7.444050312E0
9.435050900E-2,4.197000027E0,1.197000027E0,8.076000214E0
1.143505090E-1,4.197000027E0,1.197000027E0,8.076000214E0
1.343505090E-1,4.197000027E0,1.197000027E0,8.076000214E0
1.543505090E-1,4.197000027E0,1.197000027E0,8.076000214E0
1.743505090E-1,4.197000027E0,1.197000027E0,8.076000214E0
1.943505090E-1,4.063050270E0,5.070000291E-1,8.611950874E0
2.143505090E-1,4.063050270E0,5.070000291E-1,8.611950874E0
2.343505090E-1,4.063050270E0,5.070000291E-1,8.611950874E0
2.543505090E-1,4.063050270E0,5.070000291E-1,8.611950874E0
2.743505090E-1,4.063050270E0,5.070000291E-1,8.611950874E0
2.943505090E-1,2.338950157E0,1.819500029E-1,9.091050148E0
3.143505090E-1,2.338950157E0,1.819500029E-1,9.091050148E0
3.343505090E-1,3.009000063E0,-8.505000174E-2,8.956950188E0
3.543505090E-1,3.009000063E0,-8.505000174E-2,8.956950188E0
3.743505090E-1,3.009000063E0,-8.505000174E-2,8.956950188E0
3.943505090E-1,2.377050161E0,-4.680000246E-1,7.483050346E0
4.143505090E-1,2.377050161E0,-4.680000246E-1,7.483050346E0
4.343505090E-1,2.377050161E0,-4.680000246E-1,7.483050346E0
4.543505090E-1,2.377050161E0,-4.680000246E-1,7.483050346E0
4.743505090E-1,2.377050161E0,-4.680000246E-1,7.483050346E0
4.943505090E-1,2.377050161E0,-4.680000246E-1,7.483050346E0
5.143505090E-1,2.377050161E0,-4.680000246E-1,7.483050346E0
5.343505090E-1,1.956000090E0,-2.728050232E0,6.468000412E0
5.543505090E-1,1.956000090E0,-2.728050232E0,6.468000412E0
5.743505090E-1,1.956000090E0,-2.728050232E0,6.468000412E0
5.943505090E-1,1.956000090E0,-2.728050232E0,6.468000412E0
6.143505090E-1,1.956000090E0,-2.728050232E0,6.468000412E0
6.343505090E-1,8.581950188E0,-4.948950291E0,8.191050529E0
6.543505090E-1,8.581950188E0,-4.948950291E0,8.191050529E0
6.743505090E-1,9.787950516E0,-6.117000103E0,8.785050392E0
6.943505090E-1,9.787950516E0,-6.117000103E0,8.785050392E0
7.143505090E-1,9.787950516E0,-6.117000103E0,8.785050392E0
7.343505090E-1,9.787950516E0,-6.117000103E0,8.785050392E0
7.543505090E-1,9.787950516E0,-6.117000103E0,8.785050392E0
7.743505090E-1,1.164600086E1,-5.848950386E0,7.195050240E0
7.943505090E-1,1.164600086E1,-5.848950386E0,7.195050240E0
8.143505090E-1,1.053495026E1,-5.524050236E0,5.338050365E0
8.343505090E-1,1.053495026E1,-5.524050236E0,5.338050365E0
8.543505090E-1,1.053495026E1,-5.524050236E0,5.338050365E0
8.743505090E-1,9.558000565E0,-5.562000275E0,4.993050098E0
8.943505090E-1,9.558000565E0,-5.562000275E0,4.993050098E0
9.143505090E-1,8.026050568E0,-5.217000484E0,4.744050026E0
9.343505090E-1,8.026050568E0,-5.217000484E0,4.744050026E0
9.543505090E-1,8.026050568E0,-5.217000484E0,4.744050026E0
9.743505090E-1,8.026050568E0,-5.217000484E0,4.744050026E0
9.943505090E-1,8.026050568E0,-5.217000484E0,4.744050026E0
1.014350509E0,7.471050262E0,-5.026050091E0,3.997050285E0
1.034350509E0,7.471050262E0,-5.026050091E0,3.997050285E0
1.054350509E0,7.471050262E0,-5.026050091E0,3.997050285E0
1.074350509E0,7.471050262E0,-5.026050091E0,3.997050285E0
1.094350509E0,7.471050262E0,-5.026050091E0,3.997050285E0
1.114350509E0,7.069050312E0,-5.370000362E0,4.419000149E0
1.134350509E0,7.069050312E0,-5.370000362E0,4.419000149E0
1.154350509E0,7.548000336E0,-5.409000397E0,4.762950420E0
1.174350509E0,7.548000336E0,-5.409000397E0,4.762950420E0
1.194350509E0,7.548000336E0,-5.409000397E0,4.762950420E0
1.214350509E0,7.548000336E0,-5.409000397E0,4.762950420E0
1.234350509E0,7.548000336E0,-5.409000397E0,4.762950420E0
1.254350509E0,7.414050579E0,-5.313000202E0,4.974000454E0
1.274350509E0,7.414050579E0,-5.313000202E0,4.974000454E0
1.294350509E0,7.414050579E0,-5.313000202E0,4.974000454E0
1.314350509E0,7.414050579E0,-5.313000202E0,4.974000454E0
1.334350509E0,7.414050579E0,-5.313000202E0,4.974000454E0
1.354350509E0,7.509000301E0,-5.044950008E0,5.299950123E0
1.374350509E0,7.509000301E0,-5.044950008E0,5.299950123E0
1.394350509E0,7.203000546E0,-4.891950130E0,5.625000477E0
1.414350509E0,7.203000546E0,-4.891950130E0,5.625000477E0
1.434350509E0,7.203000546E0,-4.891950130E0,5.625000477E0
1.454350509E0,7.393950462E0,-4.930050373E0,5.529000282E0
1.474350509E0,7.393950462E0,-4.930050373E0,5.529000282E0
1.494350509E0,7.126050472E0,-4.873050213E0,5.644050121E0
1.514350509E0,7.126050472E0,-4.873050213E0,5.644050121E0
1.534350509E0,7.183950424E0,-4.815000057E0,5.491050243E0
1.554350509E0,7.183950424E0,-4.815000057E0,5.491050243E0
1.574350509E0,7.183950424E0,-4.815000057E0,5.491050243E0
1.594350509E0,6.954000473E0,-4.681050301E0,4.858950138E0
1.614350509E0,6.954000473E0,-4.681050301E0,4.858950138E0
1.634350509E0,6.954000473E0,-4.681050301E0,4.858950138E0
1.654350509E0,6.954000473E0,-4.681050301E0,4.858950138E0
1.674350509E0,6.954000473E0,-4.681050301E0,4.858950138E0
1.694350509E0,7.299000263E0,-4.815000057E0,4.782000065E0
1.714350509E0,7.299000263E0,-4.815000057E0,4.782000065E0
1.734350509E0,7.432950497E0,-4.624050140E0,5.011950016E0
1.754350509E0,7.432950497E0,-4.624050140E0,5.011950016E0
1.774350509E0,7.432950497E0,-4.624050140E0,5.011950016E0
1.794350509E0,7.432950497E0,-4.624050140E0,5.011950016E0
1.814350509E0,7.432950497E0,-4.624050140E0,5.011950016E0
1.834350509E0,7.240950108E0,-4.297950268E0,5.050950050E0
1.854350509E0,7.240950108E0,-4.297950268E0,5.050950050E0
1.874350509E0,7.240950108E0,-4.297950268E0,5.050950050E0
1.894350509E0,7.240950108E0,-4.297950268E0,5.050950050E0
1.914350509E0,7.240950108E0,-4.297950268E0,5.050950050E0
1.934350509E0,8.697000504E0,-4.509000301E0,4.687050343E0
1.954350509E0,8.697000504E0,-4.509000301E0,4.687050343E0
1.974350509E0,8.697000504E0,-4.509000301E0,4.687050343E0
1.974350509E0,8.620050430E0,-4.450950146E0,4.591050148E0
2.014350509E0,8.620050430E0,-4.450950146E0,4.591050148E0
2.034350509E0,8.620050430E0,-4.450950146E0,4.591050148E0
2.054350509E0,8.620050430E0,-4.450950146E0,4.591050148E0
2.074350509E0,8.409000397E0,-4.852950096E0,4.591050148E0
2.094350509E0,8.409000397E0,-4.852950096E0,4.591050148E0
2.114350509E0,8.409000397E0,-4.852950096E0,4.591050148E0
2.134350509E0,8.409000397E0,-4.852950096E0,4.591050148E0
2.154350509E0,8.409000397E0,-4.852950096E0,4.591050148E0
2.174350509E0,8.275050163E0,-3.991950274E0,4.609950066E0
2.194350509E0,8.275050163E0,-3.991950274E0,4.609950066E0
2.214350509E0,8.179950714E0,-3.762000084E0,4.380000114E0
2.234350509E0,8.179950714E0,-3.762000084E0,4.380000114E0
2.254350509E0,8.179950714E0,-3.762000084E0,4.380000114E0
2.274350509E0,8.179950714E0,-3.762000084E0,4.380000114E0
2.294350509E0,8.179950714E0,-3.762000084E0,4.380000114E0
2.314350509E0,8.389950752E0,-3.148950100E0,4.246050358E0
2.334350509E0,8.389950752E0,-3.148950100E0,4.246050358E0
2.354350509E0,8.389950752E0,-3.148950100E0,4.246050358E0
2.374350509E0,8.389950752E0,-3.148950100E0,4.246050358E0
2.394350509E0,8.389950752E0,-3.148950100E0,4.246050358E0
2.414350509E0,8.371050835E0,-2.575050116E0,4.264950275E0
2.434350509E0,8.371050835E0,-2.575050116E0,4.264950275E0
2.454350509E0,8.371050835E0,-2.575050116E0,4.264950275E0
2.474350509E0,8.371050835E0,-2.575050116E0,4.264950275E0
2.494350509E0,8.371050835E0,-2.575050116E0,4.264950275E0
2.514350509E0,9.309000015E0,-2.440950155E0,5.203950405E0
2.534350509E0,9.309000015E0,-2.440950155E0,5.203950405E0
2.554350509E0,8.926050186E0,-2.632050037E0,5.050950050E0
2.574350509E0,8.926050186E0,-2.632050037E0,5.050950050E0
2.594350509E0,9.463050842E0,-3.091950178E0,4.762950420E0
2.614350509E0,9.463050842E0,-3.091950178E0,4.762950420E0
2.634350509E0,9.463050842E0,-3.091950178E0,4.762950420E0
2.654350509E0,9.463050842E0,-3.091950178E0,4.762950420E0
2.674350509E0,9.463050842E0,-3.091950178E0,4.762950420E0
2.694350509E0,9.463050842E0,-3.091950178E0,4.762950420E0
2.714350509E0,9.463050842E0,-3.091950178E0,4.762950420E0
2.734350509E0,9.463050842E0,-3.091950178E0,4.762950420E0
2.754350509E0,1.078395081E1,-2.326050043E0,2.215950012E0
2.774350509E0,1.078395081E1,-2.326050043E0,2.215950012E0
2.794350509E0,8.199000359E0,-2.326050043E0,1.968000054E0
2.814350509E0,8.199000359E0,-2.326050043E0,1.968000054E0
2.834350509E0,8.199000359E0,-2.326050043E0,1.968000054E0
2.854350509E0,8.199000359E0,-2.326050043E0,1.968000054E0
2.874350509E0,8.199000359E0,-2.326050043E0,1.968000054E0
2.894350509E0,7.567050457E0,-1.846950054E0,2.101950169E0
2.914350509E0,7.567050457E0,-1.846950054E0,2.101950169E0
2.934350509E0,7.624050140E0,-2.364000082E0,2.062950134E0
2.954350509E0,7.624050140E0,-2.364000082E0,2.062950134E0
2.974350509E0,7.624050140E0,-2.364000082E0,2.062950134E0
2.994350509E0,1.319700050E1,-2.383050203E0,2.005950212E0
3.014350509E0,1.319700050E1,-2.383050203E0,2.005950212E0
3.034350509E0,1.319700050E1,-2.383050203E0,2.005950212E0
3.054350509E0,1.319700050E1,-2.383050203E0,2.005950212E0
3.074350509E0,1.319700050E1,-2.383050203E0,2.005950212E0
3.094350509E0,1.319700050E1,-2.383050203E0,2.005950212E0
3.114350509E0,1.319700050E1,-2.383050203E0,2.005950212E0
3.134350509E0,9.865050316E0,-3.091950178E0,2.274000168E0
3.154350509E0,9.865050316E0,-3.091950178E0,2.274000168E0
3.174350509E0,9.865050316E0,-3.091950178E0,2.274000168E0
3.194350509E0,9.865050316E0,-3.091950178E0,2.274000168E0
3.214350509E0,9.865050316E0,-3.091950178E0,2.274000168E0
3.234350509E0,9.787950516E0,-2.440950155E0,1.585050106E0
3.254350509E0,9.787950516E0,-2.440950155E0,1.585050106E0
3.274350509E0,1.042005062E1,-3.034050226E0,1.909950137E0
3.294350509E0,1.042005062E1,-3.034050226E0,1.909950137E0
3.314350509E0,1.042005062E1,-3.034050226E0,1.909950137E0
3.334350509E0,1.042005062E1,-3.034050226E0,1.909950137E0
3.354350509E0,1.042005062E1,-3.034050226E0,1.909950137E0
3.374350509E0,1.042005062E1,-3.034050226E0,1.909950137E0
3.394350509E0,1.042005062E1,-3.034050226E0,1.909950137E0
3.414350509E0,1.042005062E1,-3.034050226E0,1.909950137E0
3.434350509E0,1.042005062E1,-3.034050226E0,1.909950137E0
3.454350509E0,1.042005062E1,-3.034050226E0,1.909950137E0
3.474350509E0,1.042005062E1,-3.034050226E0,1.909950137E0
3.494350509E0,1.042005062E1,-3.034050226E0,1.909950137E0
3.514350509E0,1.042005062E1,-3.034050226E0,1.909950137E0
3.534350509E0,1.042005062E1,-3.034050226E0,1.909950137E0
3.554350509E0,1.042005062E1,-3.034050226E0,1.909950137E0
3.574350509E0,7.222050190E0,-4.719000340E0,5.119500160E-1
3.594350509E0,7.222050190E0,-4.719000340E0,5.119500160E-1
3.614350509E0,9.040950775E0,-3.589950085E0,-1.134000063E0
3.634350509E0,9.040950775E0,-3.589950085E0,-1.134000063E0
3.654350509E0,9.040950775E0,-3.589950085E0,-1.134000063E0
3.674350509E0,9.040950775E0,-3.589950085E0,-1.134000063E0
3.694350509E0,9.040950775E0,-3.589950085E0,-1.134000063E0
3.714350509E0,7.471050262E0,-5.122050285E0,4.360500276E-1
3.734350509E0,7.471050262E0,-5.122050285E0,4.360500276E-1
3.754350509E0,7.471050262E0,-5.122050285E0,4.360500276E-1
3.774350509E0,7.471050262E0,-5.122050285E0,4.360500276E-1
3.794350509E0,7.471050262E0,-5.122050285E0,4.360500276E-1
3.814350509E0,7.816050529E0,-5.868000507E0,-4.630500078E-1
3.834350509E0,7.816050529E0,-5.868000507E0,-4.630500078E-1
3.854350509E0,7.720050335E0,-4.603950024E0,-1.057050109E0
3.874350509E0,7.720050335E0,-4.603950024E0,-1.057050109E0
3.894350509E0,7.720050335E0,-4.603950024E0,-1.057050109E0
3.914350509E0,7.720050335E0,-4.603950024E0,-1.057050109E0
3.934350509E0,7.720050335E0,-4.603950024E0,-1.057050109E0
3.954350509E0,7.318050385E0,-9.507000923E0,3.210000098E-1
3.974350509E0,7.318050385E0,-9.507000923E0,3.210000098E-1
3.994350509E0,7.318050385E0,-9.507000923E0,3.210000098E-1
4.014350509E0,7.318050385E0,-9.507000923E0,3.210000098E-1
4.034350509E0,7.318050385E0,-9.507000923E0,3.210000098E-1
4.054350509E0,7.165050507E0,-7.917000294E0,2.101950169E0
4.074350509E0,7.165050507E0,-7.917000294E0,2.101950169E0
4.094350509E0,4.387950420E0,-2.842950106E0,5.890500546E-1
4.114350509E0,4.387950420E0,-2.842950106E0,5.890500546E-1
4.134350509E0,4.387950420E0,-2.842950106E0,5.890500546E-1
4.154350509E0,4.387950420E0,-2.842950106E0,5.890500546E-1
4.174350509E0,4.387950420E0,-2.842950106E0,5.890500546E-1
4.194350509E0,3.526050091E0,-1.218795013E1,3.364950180E0
4.214350509E0,3.526050091E0,-1.218795013E1,3.364950180E0
4.234350509E0,5.097000122E0,-4.948950291E0,2.178000212E0
4.254350509E0,5.097000122E0,-4.948950291E0,2.178000212E0
4.274350509E0,5.097000122E0,-4.948950291E0,2.178000212E0
4.294350509E0,3.756000280E0,-6.481050491E0,9.720000625E-1
4.314350509E0,3.756000280E0,-6.481050491E0,9.720000625E-1
4.334350509E0,3.756000280E0,-6.481050491E0,9.720000625E-1
4.354350509E0,3.756000280E0,-6.481050491E0,9.720000625E-1
4.374350509E0,3.756000280E0,-6.481050491E0,9.720000625E-1
4.394350509E0,3.756000280E0,-6.481050491E0,9.720000625E-1
4.414350509E0,3.756000280E0,-6.481050491E0,9.720000625E-1
4.434350509E0,3.756000280E0,-6.481050491E0,9.720000625E-1
4.454350509E0,3.756000280E0,-6.481050491E0,9.720000625E-1
4.474350509E0,3.756000280E0,-6.481050491E0,9.720000625E-1
4.494350509E0,3.756000280E0,-6.481050491E0,9.720000625E-1
4.514350509E0,3.756000280E0,-6.481050491E0,9.720000625E-1
4.534350509E0,3.354000092E0,-1.136400032E1,1.872000098E0
4.554350509E0,3.354000092E0,-1.136400032E1,1.872000098E0
4.574350509E0,3.354000092E0,-1.136400032E1,1.872000098E0
4.594350509E0,3.354000092E0,-1.136400032E1,1.872000098E0
4.614350509E0,3.354000092E0,-1.136400032E1,1.872000098E0
4.634350509E0,4.101000309E0,-9.411000252E0,1.278000116E0
4.654350509E0,4.101000309E0,-9.411000252E0,1.278000116E0
4.674350509E0,3.718050241E0,-9.411000252E0,1.221000075E0
4.694350509E0,3.718050241E0,-9.411000252E0,1.221000075E0
4.714350509E0,3.718050241E0,-9.411000252E0,1.221000075E0
4.734350509E0,3.718050241E0,-9.411000252E0,1.221000075E0
4.754350509E0,3.718050241E0,-9.411000252E0,1.221000075E0
4.774350509E0,4.311000347E0,-8.683050156E0,1.048050046E0
4.794350509E0,4.311000347E0,-8.683050156E0,1.048050046E0
4.814350509E0,4.311000347E0,-8.683050156E0,1.048050046E0
4.834350509E0,4.311000347E0,-8.683050156E0,1.048050046E0
4.854350509E0,4.311000347E0,-8.683050156E0,1.048050046E0
4.874350509E0,5.173050404E0,-7.324050426E0,7.230000496E-1
4.894350509E0,5.173050404E0,-7.324050426E0,7.230000496E-1
4.914350509E0,3.775050163E0,-8.146950722E0,1.144050002E0
4.934350509E0,3.775050163E0,-8.146950722E0,1.144050002E0
4.954350509E0,3.775050163E0,-8.146950722E0,1.144050002E0
4.974350509E0,3.775050163E0,-8.146950722E0,1.144050002E0
4.994350509E0,3.775050163E0,-8.146950722E0,1.144050002E0
5.014350509E0,4.005000114E0,-9.411000252E0,8.760000467E-1
5.034350509E0,4.005000114E0,-9.411000252E0,8.760000467E-1
5.054350509E0,4.005000114E0,-9.411000252E0,8.760000467E-1
5.074350509E0,4.005000114E0,-9.411000252E0,8.760000467E-1
5.094350509E0,4.005000114E0,-9.411000252E0,8.760000467E-1
5.114350509E0,3.909000158E0,-7.342950344E0,6.649500132E-1
5.134350509E0,3.909000158E0,-7.342950344E0,6.649500132E-1
5.154350509E0,2.740950108E0,-7.707000256E0,-1.950000077E-1
5.174350509E0,2.740950108E0,-7.707000256E0,-1.950000077E-1
5.194350509E0,2.740950108E0,-7.707000256E0,-1.950000077E-1
5.214350509E0,2.740950108E0,-7.707000256E0,-1.950000077E-1
5.234350509E0,2.740950108E0,-7.707000256E0,-1.950000077E-1
5.254350509E0,1.783950090E0,-1.128795052E1,-4.200000316E-2
5.274350509E0,1.783950090E0,-1.128795052E1,-4.200000316E-2
5.294350509E0,1.783950090E0,-1.128795052E1,-4.200000316E-2
5.314350509E0,1.783950090E0,-1.128795052E1,-4.200000316E-2
5.334350509E0,1.783950090E0,-1.128795052E1,-4.200000316E-2
5.354350509E0,3.373050213E0,-1.146000099E1,-5.590500236E-1
5.374350509E0,3.373050213E0,-1.146000099E1,-5.590500236E-1
5.394350509E0,3.373050213E0,-1.146000099E1,-5.590500236E-1
5.414350509E0,3.373050213E0,-1.146000099E1,-5.590500236E-1
5.434350509E0,3.373050213E0,-1.146000099E1,-5.590500236E-1
5.454350509E0,3.373050213E0,-1.146000099E1,-5.590500236E-1
5.474350509E0,3.373050213E0,-1.146000099E1,-5.590500236E-1
5.494350509E0,-7.050000429E-1,-9.085050583E0,-9.040500522E-1
5.514350509E0,-7.050000429E-1,-9.085050583E0,-9.040500522E-1
5.534350509E0,-7.050000429E-1,-9.085050583E0,-9.040500522E-1
5.554350509E0,-7.050000429E-1,-9.085050583E0,-9.040500522E-1
5.574350509E0,-7.050000429E-1,-9.085050583E0,-9.040500522E-1
5.594350509E0,9.990000725E-1,-9.544950485E0,-8.659500480E-1
5.614350509E0,9.990000725E-1,-9.544950485E0,-8.659500480E-1
5.634350509E0,1.132950068E0,-9.928050041E0,-1.950000077E-1
5.654350509E0,1.132950068E0,-9.928050041E0,-1.950000077E-1
5.674350509E0,1.132950068E0,-9.928050041E0,-1.950000077E-1
5.694350509E0,9.220500588E-1,-1.031100082E1,5.119500160E-1
5.714350509E0,9.220500588E-1,-1.031100082E1,5.119500160E-1
5.734350509E0,-6.280500293E-1,-1.057905006E1,2.440500110E-1
5.754350509E0,-6.280500293E-1,-1.057905006E1,2.440500110E-1
5.774350509E0,-6.280500293E-1,-1.057905006E1,2.440500110E-1
5.794350509E0,-6.280500293E-1,-1.057905006E1,2.440500110E-1
5.814350509E0,-6.280500293E-1,-1.057905006E1,2.440500110E-1
5.834350509E0,-8.959500194E-1,-1.069395065E1,-1.759500057E-1
5.854350509E0,-8.959500194E-1,-1.069395065E1,-1.759500057E-1
5.874350509E0,-8.959500194E-1,-1.069395065E1,-1.759500057E-1
5.894350509E0,-8.959500194E-1,-1.069395065E1,-1.759500057E-1
5.914350509E0,-8.959500194E-1,-1.069395065E1,-1.759500057E-1
5.934350509E0,1.573050022E0,-6.748950481E0,3.589500189E-1
5.954350509E0,1.573050022E0,-6.748950481E0,3.589500189E-1
5.974350509E0,8.839500546E-1,-1.019595051E1,9.340500236E-1
5.994350509E0,8.839500546E-1,-1.019595051E1,9.340500236E-1
6.014350509E0,8.839500546E-1,-1.019595051E1,9.340500236E-1
6.034350509E0,8.839500546E-1,-1.019595051E1,9.340500236E-1
6.054350509E0,8.839500546E-1,-1.019595051E1,9.340500236E-1
6.074350509E0,8.449500203E-1,-1.009995079E1,1.834050059E0
6.094350509E0,8.449500203E-1,-1.009995079E1,1.834050059E0
6.114350509E0,8.449500203E-1,-1.009995079E1,1.834050059E0
6.134350509E0,8.449500203E-1,-1.009995079E1,1.834050059E0
6.154350509E0,8.449500203E-1,-1.009995079E1,1.834050059E0
6.174350509E0,1.650000095E0,-9.697950363E0,1.068000078E0
6.194350509E0,1.650000095E0,-9.697950363E0,1.068000078E0
6.214350509E0,2.205000162E0,-9.526050568E0,9.529500604E-1
6.234350509E0,2.205000162E0,-9.526050568E0,9.529500604E-1
6.254350509E0,2.205000162E0,-9.526050568E0,9.529500604E-1
6.274350509E0,2.205000162E0,-9.526050568E0,9.529500604E-1
6.294350509E0,2.205000162E0,-9.526050568E0,9.529500604E-1
6.314350509E0,2.224050045E0,-9.219000816E0,1.795050144E0
6.334350509E0,2.224050045E0,-9.219000816E0,1.795050144E0
6.354350509E0,2.224050045E0,-9.219000816E0,1.795050144E0
6.374350509E0,2.224050045E0,-9.219000816E0,1.795050144E0
6.394350509E0,2.224050045E0,-9.219000816E0,1.795050144E0
6.414350509E0,1.611000061E0,-9.813000679E0,1.144050002E0
6.434350509E0,1.611000061E0,-9.813000679E0,1.144050002E0
6.454350509E0,1.611000061E0,-9.813000679E0,1.144050002E0
6.474350509E0,1.611000061E0,-9.813000679E0,1.144050002E0
6.494350509E0,1.611000061E0,-9.813000679E0,1.144050002E0
6.514350509E0,1.611000061E0,-9.813000679E0,1.144050002E0
6.534350509E0,1.611000061E0,-9.813000679E0,1.144050002E0
6.554350509E0,4.197000027E0,-8.913000107E0,1.852950096E0
6.574350509E0,4.197000027E0,-8.913000107E0,1.852950096E0
6.594350509E0,4.197000027E0,-8.913000107E0,1.852950096E0
6.614350509E0,4.197000027E0,-8.913000107E0,1.852950096E0
6.634350509E0,4.197000027E0,-8.913000107E0,1.852950096E0
6.654350509E0,3.544950247E0,-8.970000267E0,1.162950039E0
6.674350509E0,3.544950247E0,-8.970000267E0,1.162950039E0
6.694350509E0,2.779950142E0,-9.238950729E0,1.221000075E0
6.714350509E0,2.779950142E0,-9.238950729E0,1.221000075E0
6.734350509E0,2.779950142E0,-9.238950729E0,1.221000075E0
6.754350509E0,4.599000454E0,-1.027305031E1,1.603950024E0
6.774350509E0,4.599000454E0,-1.027305031E1,1.603950024E0
6.794350509E0,5.977050304E0,-1.205295086E1,1.431000113E0
6.814350509E0,5.977050304E0,-1.205295086E1,1.431000113E0
6.834350509E0,5.977050304E0,-1.205295086E1,1.431000113E0
6.854350509E0,5.977050304E0,-1.205295086E1,1.431000113E0
6.874350509E0,5.977050304E0,-1.205295086E1,1.431000113E0
6.894350509E0,1.554000020E0,-7.648950577E0,9.105000645E-2
6.914350509E0,1.554000020E0,-7.648950577E0,9.105000645E-2
6.934350509E0,1.554000020E0,-7.648950577E0,9.105000645E-2
6.954350509E0,1.554000020E0,-7.648950577E0,9.105000645E-2
6.974350509E0,1.554000020E0,-7.648950577E0,9.105000645E-2
6.994350509E0,3.469050169E0,-9.660000801E0,3.480000257E0
7.014350509E0,3.469050169E0,-9.660000801E0,3.480000257E0
7.034350509E0,3.316050053E0,-1.013895035E1,3.403950214E0
7.054350509E0,3.316050053E0,-1.013895035E1,3.403950214E0
7.074350509E0,3.316050053E0,-1.013895035E1,3.403950214E0
7.094350509E0,3.316050053E0,-1.013895035E1,3.403950214E0
7.114350509E0,3.316050053E0,-1.013895035E1,3.403950214E0
7.134350509E0,3.334950209E0,-1.140195084E1,-7.120500207E-1
7.154350509E0,3.334950209E0,-1.140195084E1,-7.120500207E-1
7.174350509E0,-1.879500151E-1,-9.352950096E0,-9.229500294E-1
7.194350509E0,-1.879500151E-1,-9.352950096E0,-9.229500294E-1
7.214350509E0,-1.879500151E-1,-9.352950096E0,-9.229500294E-1
7.234350509E0,-1.048950076E0,-7.419000149E0,-1.306050062E0
7.254350509E0,-1.048950076E0,-7.419000149E0,-1.306050062E0
7.274350509E0,-1.048950076E0,-7.419000149E0,-1.306050062E0
7.294350509E0,-1.048950076E0,-7.419000149E0,-1.306050062E0
7.314350509E0,-1.048950076E0,-7.419000149E0,-1.306050062E0
7.334350509E0,-1.048950076E0,-7.419000149E0,-1.306050062E0
7.354350509E0,-1.048950076E0,-7.419000149E0,-1.306050062E0
7.374350509E0,6.763050556E0,-7.381050587E0,-3.124950171E0
7.394350509E0,6.763050556E0,-7.381050587E0,-3.124950171E0
7.414350509E0,6.763050556E0,-7.381050587E0,-3.124950171E0
7.434350509E0,6.763050556E0,-7.381050587E0,-3.124950171E0
7.454350509E0,6.763050556E0,-7.381050587E0,-3.124950171E0
7.474350509E0,1.338795090E1,-9.124050140E0,-5.400000215E-1
7.494350509E0,1.338795090E1,-9.124050140E0,-5.400000215E-1
7.514350509E0,1.338795090E1,-9.124050140E0,-5.400000215E-1
7.534350509E0,1.338795090E1,-9.124050140E0,-5.400000215E-1
7.554350509E0,1.338795090E1,-9.124050140E0,-5.400000215E-1
7.574350509E0,1.338795090E1,-9.124050140E0,-5.400000215E-1
7.594350509E0,1.338795090E1,-9.124050140E0,-5.400000215E-1
7.614350509E0,-2.505000114E0,-5.275050163E0,2.542050123E0
7.634350509E0,-2.505000114E0,-5.275050163E0,2.542050123E0
7.654350509E0,-2.505000114E0,-5.275050163E0,2.542050123E0
7.674350509E0,-2.505000114E0,-5.275050163E0,2.542050123E0
7.694350509E0,-2.505000114E0,-5.275050163E0,2.542050123E0
7.714350509E0,2.242950201E0,-1.136400032E1,2.619000196E0
7.734350509E0,2.242950201E0,-1.136400032E1,2.619000196E0
7.754350509E0,2.281949997E0,-9.295950890E0,3.780000210E-1
7.774350509E0,2.281949997E0,-9.295950890E0,3.780000210E-1
7.794350509E0,2.281949997E0,-9.295950890E0,3.780000210E-1
7.814350509E0,3.660000086E0,-8.109000206E0,1.240050077E0
7.834350509E0,3.660000086E0,-8.109000206E0,1.240050077E0
7.854350509E0,5.020050049E0,-9.028050423E0,1.852950096E0
7.874350509E0,5.020050049E0,-9.028050423E0,1.852950096E0
7.894350509E0,5.020050049E0,-9.028050423E0,1.852950096E0
7.914350509E0,5.020050049E0,-9.028050423E0,1.852950096E0
7.934350509E0,5.020050049E0,-9.028050423E0,1.852950096E0
7.954350509E0,3.756000280E0,-8.109000206E0,8.190000653E-1
7.974350509E0,3.756000280E0,-8.109000206E0,8.190000653E-1
7.994350509E0,2.875050068E0,-9.448950768E0,-1.612050056E0
8.014350509E0,2.875050068E0,-9.448950768E0,-1.612050056E0
8.034350509E0,2.875050068E0,-9.448950768E0,-1.612050056E0
8.054350509E0,5.001000404E0,-1.052205086E1,1.987050056E0
8.074350509E0,5.001000404E0,-1.052205086E1,1.987050056E0
8.094350509E0,6.091950417E0,-1.138305092E1,2.809950113E0
8.114350509E0,6.091950417E0,-1.138305092E1,2.809950113E0
8.134350509E0,6.091950417E0,-1.138305092E1,2.809950113E0
8.154350509E0,6.091950417E0,-1.138305092E1,2.809950113E0
8.174350509E0,6.091950417E0,-1.138305092E1,2.809950113E0
8.194350509E0,7.126050472E0,-1.163205051E1,-5.020500422E-1
8.214350509E0,7.126050472E0,-1.163205051E1,-5.020500422E-1
8.234350509E0,5.728050232E0,-9.009000778E0,1.756950140E0
8.254350509E0,5.728050232E0,-9.009000778E0,1.756950140E0
8.274350509E0,5.728050232E0,-9.009000778E0,1.756950140E0
8.294350509E0,3.832950115E0,-1.274295044E1,5.260950089E0
8.314350509E0,3.832950115E0,-1.274295044E1,5.260950089E0
8.334350509E0,2.799000025E0,-1.488795090E1,3.921000242E0
8.354350509E0,2.799000025E0,-1.488795090E1,3.921000242E0
8.374350509E0,8.650500178E-1,-8.434050560E0,2.059500068E-1
8.394350509E0,8.650500178E-1,-8.434050560E0,2.059500068E-1
8.414350509E0,8.650500178E-1,-8.434050560E0,2.059500068E-1
8.434350509E0,8.650500178E-1,-8.434050560E0,2.059500068E-1
8.454350509E0,8.650500178E-1,-8.434050560E0,2.059500068E-1
8.474350509E0,8.650500178E-1,-8.434050560E0,2.059500068E-1
8.494350509E0,8.650500178E-1,-8.434050560E0,2.059500068E-1
8.514350509E0,8.650500178E-1,-8.434050560E0,2.059500068E-1
8.534350509E0,2.089950085E0,-6.079050064E0,5.295000225E-2
8.554350509E0,2.089950085E0,-6.079050064E0,5.295000225E-2
8.574350509E0,-6.280500293E-1,-5.256000042E0,-8.269500136E-1
8.594350509E0,-6.280500293E-1,-5.256000042E0,-8.269500136E-1
8.614350509E0,-6.280500293E-1,-5.256000042E0,-8.269500136E-1
8.634350509E0,-6.280500293E-1,-5.256000042E0,-8.269500136E-1
8.654350509E0,-6.280500293E-1,-5.256000042E0,-8.269500136E-1
8.674350509E0,8.293950081E0,-9.775050163E0,-6.687000275E0
8.694350509E0,8.293950081E0,-9.775050163E0,-6.687000275E0
8.714350509E0,1.250700092E1,-1.304895020E1,-5.097000122E0
8.734350509E0,1.250700092E1,-1.304895020E1,-5.097000122E0
8.754350509E0,1.250700092E1,-1.304895020E1,-5.097000122E0
8.774350509E0,9.040950775E0,-4.719000340E0,-2.340000123E-1
8.794350509E0,9.040950775E0,-4.719000340E0,-2.340000123E-1
8.814350509E0,9.040950775E0,-4.719000340E0,-2.340000123E-1
8.834350509E0,9.040950775E0,-4.719000340E0,-2.340000123E-1
8.854350509E0,9.040950775E0,-4.719000340E0,-2.340000123E-1
8.874350509E0,-9.195000678E-2,-8.989950180E0,3.174000263E0
8.894350509E0,-9.195000678E-2,-8.989950180E0,3.174000263E0
8.914350509E0,-2.160000086E0,-7.458000183E0,2.982000113E0
8.934350509E0,-2.160000086E0,-7.458000183E0,2.982000113E0
8.954350509E0,-2.160000086E0,-7.458000183E0,2.982000113E0
8.974350509E0,-2.160000086E0,-7.458000183E0,2.982000113E0
8.994350509E0,-2.160000086E0,-7.458000183E0,2.982000113E0
9.014350509E0,9.799500704E-1,-9.430050850E0,3.589500189E-1
9.034350509E0,9.799500704E-1,-9.430050850E0,3.589500189E-1
9.054350509E0,3.450000048E0,-8.779050827E0,-1.804050088E0
9.074350509E0,3.450000048E0,-8.779050827E0,-1.804050088E0
9.094350509E0,3.450000048E0,-8.779050827E0,-1.804050088E0
9.114350509E0,4.157999992E0,-8.644950867E0,2.523000002E0
9.134350509E0,4.157999992E0,-8.644950867E0,2.523000002E0
9.154350509E0,4.157999992E0,-8.644950867E0,2.523000002E0
9.174350509E0,4.157999992E0,-8.644950867E0,2.523000002E0
9.194350509E0,4.157999992E0,-8.644950867E0,2.523000002E0
9.214350509E0,4.157999992E0,-8.644950867E0,2.523000002E0
9.234350509E0,4.157999992E0,-8.644950867E0,2.523000002E0
9.254350509E0,3.775050163E0,-8.970000267E0,-4.200000316E-2
9.274350509E0,3.775050163E0,-8.970000267E0,-4.200000316E-2
9.294350509E0,3.775050163E0,-8.970000267E0,-4.200000316E-2
9.314350509E0,3.775050163E0,-8.970000267E0,-4.200000316E-2
9.334350509E0,3.775050163E0,-8.970000267E0,-4.200000316E-2
9.354350509E0,5.269050121E0,-1.188105011E1,2.638050079E0
9.374350509E0,5.269050121E0,-1.188105011E1,2.638050079E0
9.394350509E0,7.375050545E0,-1.180500031E1,-1.593000054E0
9.414350509E0,7.375050545E0,-1.180500031E1,-1.593000054E0
9.434350509E0,7.375050545E0,-1.180500031E1,-1.593000054E0
9.454350509E0,7.375050545E0,-1.180500031E1,-1.593000054E0
9.474350509E0,7.375050545E0,-1.180500031E1,-1.593000054E0
9.494350509E0,2.665050030E0,-8.473050117E0,1.527000070E0
9.514350509E0,2.665050030E0,-8.473050117E0,1.527000070E0
9.534350509E0,2.665050030E0,-8.473050117E0,1.527000070E0
9.554350509E0,2.665050030E0,-8.473050117E0,1.527000070E0
9.574350509E0,2.665050030E0,-8.473050117E0,1.527000070E0
9.594350509E0,1.189950109E0,-1.366200066E1,3.001950026E0
9.614350509E0,1.189950109E0,-1.366200066E1,3.001950026E0
9.634350509E0,9.600000381E-1,-7.668000221E0,-6.360000372E-1
9.654350509E0,9.600000381E-1,-7.668000221E0,-6.360000372E-1
9.674350509E0,9.600000381E-1,-7.668000221E0,-6.360000372E-1
9.694350509E0,9.600000381E-1,-7.668000221E0,-6.360000372E-1
9.714350509E0,9.600000381E-1,-7.668000221E0,-6.360000372E-1
9.734350509E0,2.397000074E0,-6.022050381E0,6.649500132E-1
9.754350509E0,2.397000074E0,-6.022050381E0,6.649500132E-1
9.774350509E0,2.397000074E0,-6.022050381E0,6.649500132E-1
9.794350509E0,2.397000074E0,-6.022050381E0,6.649500132E-1
9.814350509E0,2.397000074E0,-6.022050381E0,6.649500132E-1
9.834350509E0,2.740950108E0,-6.807000160E0,-1.804050088E0
9.854350509E0,2.740950108E0,-6.807000160E0,-1.804050088E0
9.874350509E0,3.316050053E0,-7.266000271E0,-2.857050180E0
9.894350509E0,3.316050053E0,-7.266000271E0,-2.857050180E0
9.914350509E0,3.316050053E0,-7.266000271E0,-2.857050180E0
9.934350509E0,9.865050316E0,-1.067505074E1,-5.020500422E-1
9.954350509E0,9.865050316E0,-1.067505074E1,-5.020500422E-1
9.974350509E0,1.599195099E1,-1.008105087E1,2.542050123E0
9.994350509E0,1.599195099E1,-1.008105087E1,2.542050123E0
1.001435051E1,1.599195099E1,-1.008105087E1,2.542050123E0
1.003435051E1,1.599195099E1,-1.008105087E1,2.542050123E0
1.005435051E1,1.599195099E1,-1.008105087E1,2.542050123E0
1.007435051E1,1.783950090E0,-1.481100082E1,-4.440000355E-1
1.009435051E1,1.783950090E0,-1.481100082E1,-4.440000355E-1
1.011435051E1,-1.891950130E0,-6.001950264E0,2.215950012E0
1.013435051E1,-1.891950130E0,-6.001950264E0,2.215950012E0
1.015435051E1,-1.891950130E0,-6.001950264E0,2.215950012E0
1.017435051E1,-3.673050165E0,-7.897950172E0,3.499050140E0
1.019435051E1,-3.673050165E0,-7.897950172E0,3.499050140E0
1.021435051E1,-2.256000042E0,-1.004295063E1,3.001950026E0
1.023435051E1,-2.256000042E0,-1.004295063E1,3.001950026E0
1.025435051E1,-2.256000042E0,-1.004295063E1,3.001950026E0
1.025435051E1,4.095000029E-2,-9.928050041E0,1.290000081E-1
1.029435051E1,4.095000029E-2,-9.928050041E0,1.290000081E-1
1.031435051E1,3.544950247E0,-8.722050667E0,1.009950042E0
1.033435051E1,3.544950247E0,-8.722050667E0,1.009950042E0
1.035435051E1,3.544950247E0,-8.722050667E0,1.009950042E0
1.037435051E1,3.544950247E0,-8.722050667E0,1.009950042E0
1.039435051E1,3.544950247E0,-8.722050667E0,1.009950042E0
1.041435051E1,5.938950062E0,-8.740950584E0,2.044049978E0
1.043435051E1,5.938950062E0,-8.740950584E0,2.044049978E0
1.045435051E1,5.938950062E0,-8.740950584E0,2.044049978E0
1.047435051E1,5.938950062E0,-8.740950584E0,2.044049978E0
1.049435051E1,5.938950062E0,-8.740950584E0,2.044049978E0
1.051435051E1,5.938950062E0,-8.740950584E0,2.044049978E0
1.053435051E1,5.938950062E0,-8.740950584E0,2.044049978E0
1.055435051E1,5.499000072E0,-1.109595013E1,2.236050129E0
1.057435051E1,5.499000072E0,-1.109595013E1,2.236050129E0
1.059435051E1,5.824050426E0,-9.966000557E0,1.546050072E0
1.061435051E1,5.824050426E0,-9.966000557E0,1.546050072E0
1.063435051E1,5.824050426E0,-9.966000557E0,1.546050072E0
1.065435051E1,9.883950233E0,-1.253205013E1,-4.828950405E0
1.067435051E1,9.883950233E0,-1.253205013E1,-4.828950405E0
1.069435051E1,9.883950233E0,-1.253205013E1,-4.828950405E0
1.071435051E1,9.883950233E0,-1.253205013E1,-4.828950405E0
1.073435051E1,9.883950233E0,-1.253205013E1,-4.828950405E0
1.075435051E1,9.883950233E0,-1.253205013E1,-4.828950405E0
1.077435051E1,9.883950233E0,-1.253205013E1,-4.828950405E0
1.079435051E1,-5.130000114E-1,-1.783695030E1,1.470000029E0
1.081435051E1,-5.130000114E-1,-1.783695030E1,1.470000029E0
1.083435051E1,-5.130000114E-1,-1.783695030E1,1.470000029E0
1.085435051E1,-5.130000114E-1,-1.783695030E1,1.470000029E0
1.087435051E1,-5.130000114E-1,-1.783695030E1,1.470000029E0
1.089435051E1,4.240500331E-1,-7.879050255E0,1.968000054E0
1.091435051E1,4.240500331E-1,-7.879050255E0,1.968000054E0
1.093435051E1,2.338950157E0,-5.964000225E0,-3.480000198E-1
1.095435051E1,2.338950157E0,-5.964000225E0,-3.480000198E-1
1.097435051E1,2.338950157E0,-5.964000225E0,-3.480000198E-1
1.099435051E1,2.893950224E0,-4.356000423E0,7.230000496E-1
1.101435051E1,2.893950224E0,-4.356000423E0,7.230000496E-1
1.103435051E1,4.050000310E-1,-4.201950073E0,1.470000029E0
1.105435051E1,4.050000310E-1,-4.201950073E0,1.470000029E0
1.107435051E1,4.050000310E-1,-4.201950073E0,1.470000029E0
1.109435051E1,4.050000310E-1,-4.201950073E0,1.470000029E0
1.111435051E1,4.050000310E-1,-4.201950073E0,1.470000029E0
1.113435051E1,6.934950352E0,-1.023405075E1,-4.351050377E0
1.115435051E1,6.934950352E0,-1.023405075E1,-4.351050377E0
1.117435051E1,1.719900131E1,-1.615095139E1,-5.269950390E0
1.119435051E1,1.719900131E1,-1.615095139E1,-5.269950390E0
1.121435051E1,1.719900131E1,-1.615095139E1,-5.269950390E0
1.123435051E1,1.279500103E1,-5.734050274E0,-2.167950153E0
1.125435051E1,1.279500103E1,-5.734050274E0,-2.167950153E0
1.127435051E1,4.101000309E0,-1.414095020E1,3.768000126E0
1.129435051E1,4.101000309E0,-1.414095020E1,3.768000126E0
1.131435051E1,4.101000309E0,-1.414095020E1,3.768000126E0
1.133435051E1,4.101000309E0,-1.414095020E1,3.768000126E0
1.135435051E1,4.101000309E0,-1.414095020E1,3.768000126E0
1.137435051E1,-4.726050377E0,-4.795950413E0,1.099500060E-1
1.139435051E1,-4.726050377E0,-4.795950413E0,1.099500060E-1
1.141435051E1,-4.726050377E0,-4.795950413E0,1.099500060E-1
1.143435051E1,-4.726050377E0,-4.795950413E0,1.099500060E-1
1.145435051E1,-4.726050377E0,-4.795950413E0,1.099500060E-1
1.147435051E1,-5.899500251E-1,-1.059795094E1,2.389050007E0
1.149435051E1,-5.899500251E-1,-1.059795094E1,2.389050007E0
1.151435051E1,2.511000156E0,-9.105000496E0,4.360500276E-1
1.153435051E1,2.511000156E0,-9.105000496E0,4.360500276E-1
1.155435051E1,2.511000156E0,-9.105000496E0,4.360500276E-1
1.157435051E1,2.511000156E0,-9.105000496E0,4.360500276E-1
1.159435051E1,2.511000156E0,-9.105000496E0,4.360500276E-1
1.161435051E1,5.824050426E0,-9.085050583E0,2.311950207E0
1.163435051E1,5.824050426E0,-9.085050583E0,2.311950207E0
1.165435051E1,5.824050426E0,-9.085050583E0,2.311950207E0
1.165435051E1,6.838950157E0,-8.377050400E0,1.776000142E0
1.169435051E1,6.838950157E0,-8.377050400E0,1.776000142E0
1.171435051E1,5.479950428E0,-7.879050255E0,-1.287000060E0
1.173435051E1,5.479950428E0,-7.879050255E0,-1.287000060E0
1.175435051E1,5.479950428E0,-7.879050255E0,-1.287000060E0
1.177435051E1,5.479950428E0,-7.879050255E0,-1.287000060E0
1.179435051E1,5.479950428E0,-7.879050255E0,-1.287000060E0
1.181435051E1,5.479950428E0,-7.879050255E0,-1.287000060E0
1.183435051E1,5.479950428E0,-7.879050255E0,-1.287000060E0
1.185435051E1,5.307000160E0,-9.870000839E0,1.564950109E0
1.187435051E1,5.307000160E0,-9.870000839E0,1.564950109E0
1.189435051E1,5.307000160E0,-9.870000839E0,1.564950109E0
1.191435051E1,5.307000160E0,-9.870000839E0,1.564950109E0
1.193435051E1,5.307000160E0,-9.870000839E0,1.564950109E0
1.195435051E1,3.889950275E0,-9.966000557E0,1.699050069E0
1.197435051E1,3.889950275E0,-9.966000557E0,1.699050069E0
1.199435051E1,3.670500219E-1,-1.329795074E1,3.289050102E0
1.201435051E1,3.670500219E-1,-1.329795074E1,3.289050102E0
1.203435051E1,3.670500219E-1,-1.329795074E1,3.289050102E0
1.205435051E1,-2.639999986E-1,-2.023005104E1,-2.053050041E0
1.207435051E1,-2.639999986E-1,-2.023005104E1,-2.053050041E0
1.209435051E1,-2.542950153E0,-8.683050156E0,2.542050123E0
1.211435051E1,-2.542950153E0,-8.683050156E0,2.542050123E0
1.213435051E1,-2.542950153E0,-8.683050156E0,2.542050123E0
1.215435051E1,-2.542950153E0,-8.683050156E0,2.542050123E0
1.217435051E1,-2.542950153E0,-8.683050156E0,2.542050123E0
1.219435051E1,2.014050007E0,-6.117000103E0,-2.910000086E-1
1.221435051E1,2.014050007E0,-6.117000103E0,-2.910000086E-1
1.223435051E1,1.630950093E0,-5.179050446E0,1.489050031E0
1.225435051E1,1.630950093E0,-5.179050446E0,1.489050031E0
1.227435051E1,1.630950093E0,-5.179050446E0,1.489050031E0
1.229435051E1,1.036949992E0,-3.589950085E0,1.374000072E0
1.231435051E1,1.036949992E0,-3.589950085E0,1.374000072E0
1.233435051E1,5.077050209E0,-5.293950081E0,-1.018950105E0
1.235435051E1,5.077050209E0,-5.293950081E0,-1.018950105E0
1.237435051E1,5.077050209E0,-5.293950081E0,-1.018950105E0
1.239435051E1,5.077050209E0,-5.293950081E0,-1.018950105E0
1.241435051E1,5.077050209E0,-5.293950081E0,-1.018950105E0
1.243435051E1,5.077050209E0,-5.293950081E0,-1.018950105E0
1.245435051E1,5.077050209E0,-5.293950081E0,-1.018950105E0
1.247435051E1,5.077050209E0,-5.293950081E0,-1.018950105E0
1.249435051E1,5.077050209E0,-5.293950081E0,-1.018950105E0
1.251435051E1,5.077050209E0,-5.293950081E0,-1.018950105E0
1.253435051E1,6.730500460E-1,-1.121100044E1,3.780000210E-1
1.255435051E1,6.730500460E-1,-1.121100044E1,3.780000210E-1
1.257435051E1,-9.150000215E-1,-1.201500034E1,2.407950163E0
1.259435051E1,-9.150000215E-1,-1.201500034E1,2.407950163E0
1.261435051E1,-9.150000215E-1,-1.201500034E1,2.407950163E0
1.263435051E1,-9.150000215E-1,-1.201500034E1,2.407950163E0
1.265435051E1,-9.150000215E-1,-1.201500034E1,2.407950163E0
1.267435051E1,1.248000026E0,-1.013895035E1,4.323000431E0
1.269435051E1,1.248000026E0,-1.013895035E1,4.323000431E0
1.271435051E1,1.248000026E0,-1.013895035E1,4.323000431E0
1.273435051E1,1.248000026E0,-1.013895035E1,4.323000431E0
1.275435051E1,1.248000026E0,-1.013895035E1,4.323000431E0
1.277435051E1,4.579950333E0,-7.975050449E0,-1.000050068E0
1.279435051E1,4.579950333E0,-7.975050449E0,-1.000050068E0
1.281435051E1,4.579950333E0,-7.975050449E0,-1.000050068E0
1.283435051E1,4.579950333E0,-7.975050449E0,-1.000050068E0
1.285435051E1,4.579950333E0,-7.975050449E0,-1.000050068E0
1.287435051E1,4.579950333E0,-7.975050449E0,-1.000050068E0
1.289435051E1,4.579950333E0,-7.975050449E0,-1.000050068E0
1.291435051E1,3.756000280E0,-8.204999924E0,5.890500546E-1
1.293435051E1,3.756000280E0,-8.204999924E0,5.890500546E-1
1.295435051E1,3.756000280E0,-8.204999924E0,5.890500546E-1
1.297435051E1,3.756000280E0,-8.204999924E0,5.890500546E-1
1.299435051E1,3.756000280E0,-8.204999924E0,5.890500546E-1
1.301435051E1,4.444950104E0,-1.078995037E1,1.909950137E0
1.303435051E1,4.444950104E0,-1.078995037E1,1.909950137E0
1.305435051E1,4.157999992E0,-1.038795090E1,1.948050141E0
1.307435051E1,4.157999992E0,-1.038795090E1,1.948050141E0
1.309435051E1,4.157999992E0,-1.038795090E1,1.948050141E0
1.311435051E1,5.997000217E0,-1.002405071E1,-2.910000086E-1
1.313435051E1,5.997000217E0,-1.002405071E1,-2.910000086E-1
1.315435051E1,5.997000217E0,-1.002405071E1,-2.910000086E-1
1.317435051E1,5.997000217E0,-1.002405071E1,-2.910000086E-1
1.319435051E1,5.997000217E0,-1.002405071E1,-2.910000086E-1
1.321435051E1,5.997000217E0,-1.002405071E1,-2.910000086E-1
1.323435051E1,5.997000217E0,-1.002405071E1,-2.910000086E-1
1.325435051E1,2.301000118E0,-1.195800018E1,4.170000076E0
1.327435051E1,2.301000118E0,-1.195800018E1,4.170000076E0
1.329435051E1,4.819500148E-1,-1.875600052E1,2.044049978E0
1.331435051E1,4.819500148E-1,-1.875600052E1,2.044049978E0
1.333435051E1,4.819500148E-1,-1.875600052E1,2.044049978E0
1.335435051E1,-1.891950130E0,-8.989950180E0,-2.416950226E0
1.337435051E1,-1.891950130E0,-8.989950180E0,-2.416950226E0
1.339435051E1,-4.560000300E-1,-6.499950409E0,1.852950096E0
1.341435051E1,-4.560000300E-1,-6.499950409E0,1.852950096E0
1.343435051E1,-4.560000300E-1,-6.499950409E0,1.852950096E0
1.345435051E1,-4.560000300E-1,-6.499950409E0,1.852950096E0
1.347435051E1,-4.560000300E-1,-6.499950409E0,1.852950096E0
1.349435051E1,-4.560000300E-1,-6.499950409E0,1.852950096E0
1.351435051E1,-4.560000300E-1,-6.499950409E0,1.852950096E0
1.353435051E1,-4.560000300E-1,-6.499950409E0,1.852950096E0
1.355435051E1,-4.560000300E-1,-6.499950409E0,1.852950096E0
1.357435051E1,-4.560000300E-1,-6.499950409E0,1.852950096E0
1.359435051E1,4.120050430E0,-6.040950298E0,-2.910000086E-1
1.361435051E1,4.120050430E0,-6.040950298E0,-2.910000086E-1
1.363435051E1,7.203000546E0,-9.813000679E0,-3.871950150E0
1.365435051E1,7.203000546E0,-9.813000679E0,-3.871950150E0
1.367435051E1,7.203000546E0,-9.813000679E0,-3.871950150E0
1.369435051E1,7.203000546E0,-9.813000679E0,-3.871950150E0
1.371435051E1,7.203000546E0,-9.813000679E0,-3.871950150E0
1.373435051E1,1.076505089E1,-7.591950417E0,-3.240000248E0
1.375435051E1,1.076505089E1,-7.591950417E0,-3.240000248E0
1.377435051E1,1.076505089E1,-7.591950417E0,-3.240000248E0
1.379435051E1,1.076505089E1,-7.591950417E0,-3.240000248E0
1.381435051E1,1.076505089E1,-7.591950417E0,-3.240000248E0
1.383435051E1,5.970000029E-1,-1.234095097E1,3.780000210E-1
1.385435051E1,5.970000029E-1,-1.234095097E1,3.780000210E-1
1.387435051E1,5.970000029E-1,-1.234095097E1,3.780000210E-1
1.389435051E1,5.970000029E-1,-1.234095097E1,3.780000210E-1
1.391435051E1,5.970000029E-1,-1.234095097E1,3.780000210E-1
1.393435051E1,5.970000029E-1,-1.234095097E1,3.780000210E-1
1.395435051E1,5.970000029E-1,-1.234095097E1,3.780000210E-1
1.397435051E1,1.228050113E0,-1.015800095E1,4.534049988E0
1.399435051E1,1.228050113E0,-1.015800095E1,4.534049988E0
1.401435051E1,2.109000206E0,-9.775050163E0,2.464950085E0
1.403435051E1,2.109000206E0,-9.775050163E0,2.464950085E0
1.405435051E1,2.109000206E0,-9.775050163E0,2.464950085E0
1.407435051E1,3.985950232E0,-8.377050400E0,8.569500446E-1
1.409435051E1,3.985950232E0,-8.377050400E0,8.569500446E-1
1.411435051E1,3.985950232E0,-8.377050400E0,8.569500446E-1
1.413435051E1,3.985950232E0,-8.377050400E0,8.569500446E-1
1.415435051E1,3.985950232E0,-8.377050400E0,8.569500446E-1
1.417435051E1,4.885950089E0,-8.511000633E0,1.105949998E0
1.419435051E1,4.885950089E0,-8.511000633E0,1.105949998E0
1.421435051E1,3.699000120E0,-8.664000511E0,1.087050080E0
1.423435051E1,3.699000120E0,-8.664000511E0,1.087050080E0
1.425435051E1,3.699000120E0,-8.664000511E0,1.087050080E0
1.427435051E1,3.699000120E0,-8.664000511E0,1.087050080E0
1.429435051E1,3.699000120E0,-8.664000511E0,1.087050080E0
1.431435051E1,4.330950260E0,-1.009995079E1,1.470000029E0
1.433435051E1,4.330950260E0,-1.009995079E1,1.470000029E0
1.435435051E1,6.016050339E0,-9.277050018E0,3.589500189E-1
1.437435051E1,6.016050339E0,-9.277050018E0,3.589500189E-1
1.439435051E1,6.016050339E0,-9.277050018E0,3.589500189E-1
1.441435051E1,9.673050880E0,-1.327905083E1,-5.212050438E0
1.443435051E1,9.673050880E0,-1.327905083E1,-5.212050438E0
1.445435051E1,9.673050880E0,-1.327905083E1,-5.212050438E0
1.447435051E1,9.673050880E0,-1.327905083E1,-5.212050438E0
1.449435051E1,9.673050880E0,-1.327905083E1,-5.212050438E0
1.451435051E1,9.673050880E0,-1.327905083E1,-5.212050438E0
1.453435051E1,9.673050880E0,-1.327905083E1,-5.212050438E0
1.455435051E1,2.899500132E-1,-1.670700073E1,2.868000031E0
1.457435051E1,2.899500132E-1,-1.670700073E1,2.868000031E0
1.459435051E1,2.899500132E-1,-1.670700073E1,2.868000031E0
1.461435051E1,2.899500132E-1,-1.670700073E1,2.868000031E0
1.463435051E1,2.899500132E-1,-1.670700073E1,2.868000031E0
1.465435051E1,2.899500132E-1,-6.442950249E0,2.440500110E-1
1.467435051E1,2.899500132E-1,-6.442950249E0,2.440500110E-1
1.469435051E1,1.993950129E0,-6.844950199E0,7.039500475E-1
1.471435051E1,1.993950129E0,-6.844950199E0,7.039500475E-1
1.473435051E1,1.993950129E0,-6.844950199E0,7.039500475E-1
1.475435051E1,1.993950129E0,-6.844950199E0,7.039500475E-1
1.477435051E1,1.993950129E0,-6.844950199E0,7.039500475E-1
1.479435051E1,2.089950085E0,-5.332050323E0,3.405000269E-2
1.481435051E1,2.089950085E0,-5.332050323E0,3.405000269E-2
1.483435051E1,2.089950085E0,-5.332050323E0,3.405000269E-2
1.485435051E1,2.089950085E0,-5.332050323E0,3.405000269E-2
1.487435051E1,2.089950085E0,-5.332050323E0,3.405000269E-2
1.489435051E1,1.956000090E0,-6.289950371E0,-5.209500194E-1
1.491435051E1,1.956000090E0,-6.289950371E0,-5.209500194E-1
1.493435051E1,1.007505035E1,-1.368105030E1,-1.580205059E1
1.495435051E1,1.007505035E1,-1.368105030E1,-1.580205059E1
1.497435051E1,1.007505035E1,-1.368105030E1,-1.580205059E1
1.499435051E1,1.007505035E1,-1.368105030E1,-1.580205059E1
1.501435051E1,1.007505035E1,-1.368105030E1,-1.580205059E1
1.503435051E1,1.007505035E1,-1.368105030E1,-1.580205059E1
1.505435051E1,1.007505035E1,-1.368105030E1,-1.580205059E1
1.507435051E1,3.354000092E0,-1.249395084E1,-6.514050484E0
1.509435051E1,3.354000092E0,-1.249395084E1,-6.514050484E0
1.511435051E1,3.354000092E0,-1.249395084E1,-6.514050484E0
1.513435051E1,8.260500431E-1,-7.936050415E0,2.062950134E0
1.515435051E1,8.260500431E-1,-7.936050415E0,2.062950134E0
1.517435051E1,8.260500431E-1,-7.936050415E0,2.062950134E0
1.519435051E1,8.260500431E-1,-7.936050415E0,2.062950134E0
1.521435051E1,8.260500431E-1,-7.936050415E0,2.062950134E0
1.523435051E1,4.429500103E-1,-1.103895092E1,4.036050320E0
1.525435051E1,4.429500103E-1,-1.103895092E1,4.036050320E0
1.527435051E1,-9.340500236E-1,-9.352950096E0,-3.526950121E0
1.529435051E1,-9.340500236E-1,-9.352950096E0,-3.526950121E0
1.531435051E1,-9.340500236E-1,-9.352950096E0,-3.526950121E0
1.533435051E1,-9.340500236E-1,-9.352950096E0,-3.526950121E0
1.535435051E1,-9.340500236E-1,-9.352950096E0,-3.526950121E0
1.537435051E1,4.042950153E0,-8.377050400E0,3.211950064E0
1.539435051E1,4.042950153E0,-8.377050400E0,3.211950064E0
1.541435051E1,4.042950153E0,-8.377050400E0,3.211950064E0
1.543435051E1,4.042950153E0,-8.377050400E0,3.211950064E0
1.545435051E1,4.042950153E0,-8.377050400E0,3.211950064E0
1.547435051E1,3.985950232E0,-7.936050415E0,-7.510500550E-1
1.549435051E1,3.985950232E0,-7.936050415E0,-7.510500550E-1
1.551435051E1,2.397000074E0,-7.879050255E0,2.140050173E0
1.553435051E1,2.397000074E0,-7.879050255E0,2.140050173E0
1.555435051E1,2.397000074E0,-7.879050255E0,2.140050173E0
1.557435051E1,2.397000074E0,-7.879050255E0,2.140050173E0
1.559435051E1,2.397000074E0,-7.879050255E0,2.140050173E0
1.561435051E1,5.556000233E0,-1.056000042E1,1.680000067E0
1.563435051E1,5.556000233E0,-1.056000042E1,1.680000067E0
1.565435051E1,5.556000233E0,-1.056000042E1,1.680000067E0
1.567435051E1,5.556000233E0,-1.056000042E1,1.680000067E0
1.569435051E1,5.556000233E0,-1.056000042E1,1.680000067E0
1.571435051E1,7.969050407E0,-1.080900097E1,-1.440000057E0
1.573435051E1,7.969050407E0,-1.080900097E1,-1.440000057E0
1.575435051E1,7.720050335E0,-1.077000046E1,-1.879950047E0
1.577435051E1,7.720050335E0,-1.077000046E1,-1.879950047E0
1.579435051E1,7.720050335E0,-1.077000046E1,-1.879950047E0
1.581435051E1,7.720050335E0,-1.077000046E1,-1.879950047E0
1.583435051E1,7.720050335E0,-1.077000046E1,-1.879950047E0
1.585435051E1,1.093950033E0,-1.624695015E1,1.776000142E0
1.587435051E1,1.093950033E0,-1.624695015E1,1.776000142E0
1.589435051E1,1.093950033E0,-1.624695015E1,1.776000142E0
1.591435051E1,1.093950033E0,-1.624695015E1,1.776000142E0
1.593435051E1,1.093950033E0,-1.624695015E1,1.776000142E0
1.595435051E1,8.449500203E-1,-8.530050278E0,1.489050031E0
1.597435051E1,8.449500203E-1,-8.530050278E0,1.489050031E0
1.599435051E1,2.722050190E0,-7.897950172E0,1.680000126E-1
1.601435051E1,2.722050190E0,-7.897950172E0,1.680000126E-1
1.603435051E1,2.722050190E0,-7.897950172E0,1.680000126E-1
1.605435051E1,2.722050190E0,-7.897950172E0,1.680000126E-1
1.607435051E1,2.722050190E0,-7.897950172E0,1.680000126E-1
1.609435051E1,-5.400000140E-2,-5.868000507E0,5.119500160E-1
1.611435051E1,-5.400000140E-2,-5.868000507E0,5.119500160E-1
1.613435051E1,-5.400000140E-2,-5.868000507E0,5.119500160E-1
1.615435051E1,-5.400000140E-2,-5.868000507E0,5.119500160E-1
1.617435051E1,-5.400000140E-2,-5.868000507E0,5.119500160E-1
1.619435051E1,8.160000801E0,-9.162000656E0,-3.087000132E0
1.621435051E1,8.160000801E0,-9.162000656E0,-3.087000132E0
1.623435051E1,8.160000801E0,-9.162000656E0,-3.087000132E0
1.625435051E1,8.160000801E0,-9.162000656E0,-3.087000132E0
1.627435051E1,8.160000801E0,-9.162000656E0,-3.087000132E0
1.629435051E1,7.797000408E0,-4.528050423E0,2.140050173E0
1.631435051E1,7.797000408E0,-4.528050423E0,2.140050173E0
1.633435051E1,1.573050022E0,-1.038795090E1,-2.071950197E0
1.635435051E1,1.573050022E0,-1.038795090E1,-2.071950197E0
1.637435051E1,1.573050022E0,-1.038795090E1,-2.071950197E0
1.639435051E1,1.573050022E0,-1.038795090E1,-2.071950197E0
1.641435051E1,1.573050022E0,-1.038795090E1,-2.071950197E0
1.643435051E1,1.573050022E0,-1.038795090E1,-2.071950197E0
1.645435051E1,1.573050022E0,-1.038795090E1,-2.071950197E0
1.647435051E1,-1.260000110E0,-5.275050163E0,5.338050365E0
1.649435051E1,-1.260000110E0,-5.275050163E0,5.338050365E0
1.651435051E1,-1.260000110E0,-5.275050163E0,5.338050365E0
1.653435051E1,2.491950035E0,-1.149795055E1,3.480000257E0
1.655435051E1,2.491950035E0,-1.149795055E1,3.480000257E0
1.657435051E1,2.491950035E0,-1.149795055E1,3.480000257E0
1.659435051E1,2.491950035E0,-1.149795055E1,3.480000257E0
1.661435051E1,2.491950035E0,-1.149795055E1,3.480000257E0
1.663435051E1,2.491950035E0,-1.149795055E1,3.480000257E0
1.665435051E1,2.491950035E0,-1.149795055E1,3.480000257E0
1.667435051E1,5.038950443E0,-9.315000534E0,3.117000103E0
1.669435051E1,5.038950443E0,-9.315000534E0,3.117000103E0
1.671435051E1,5.038950443E0,-9.315000534E0,3.117000103E0
1.673435051E1,5.038950443E0,-9.315000534E0,3.117000103E0
1.675435051E1,5.038950443E0,-9.315000534E0,3.117000103E0
1.677435051E1,4.216050148E0,-9.028050423E0,-1.759500057E-1
1.679435051E1,4.216050148E0,-9.028050423E0,-1.759500057E-1
1.681435051E1,3.660000086E0,-9.411000252E0,8.380500674E-1
1.683435051E1,3.660000086E0,-9.411000252E0,8.380500674E-1
1.685435051E1,3.660000086E0,-9.411000252E0,8.380500674E-1
1.687435051E1,3.660000086E0,-9.411000252E0,8.380500674E-1
1.689435051E1,3.660000086E0,-9.411000252E0,8.380500674E-1
1.691435051E1,2.856000185E0,-1.044495010E1,2.982000113E0
1.693435051E1,2.856000185E0,-1.044495010E1,2.982000113E0
1.695435051E1,2.856000185E0,-1.044495010E1,2.982000113E0
1.697435051E1,2.856000185E0,-1.044495010E1,2.982000113E0
1.699435051E1,2.856000185E0,-1.044495010E1,2.982000113E0
1.701435051E1,6.916050434E0,-1.059795094E1,-2.800050020E0
1.703435051E1,6.916050434E0,-1.059795094E1,-2.800050020E0
1.705435051E1,6.877050400E0,-8.989950180E0,-5.590500236E-1
1.707435051E1,6.877050400E0,-8.989950180E0,-5.590500236E-1
1.709435051E1,6.877050400E0,-8.989950180E0,-5.590500236E-1
1.711435051E1,6.877050400E0,-8.989950180E0,-5.590500236E-1
1.713435051E1,6.877050400E0,-8.989950180E0,-5.590500236E-1
1.715435051E1,-1.126049995E0,-1.308795071E1,1.891050100E0
1.717435051E1,-1.126049995E0,-1.308795071E1,1.891050100E0
1.719435051E1,-1.126049995E0,-1.308795071E1,1.891050100E0
1.721435051E1,-1.126049995E0,-1.308795071E1,1.891050100E0
1.723435051E1,-1.126049995E0,-1.308795071E1,1.891050100E0
1.725435051E1,-1.126049995E0,-1.308795071E1,1.891050100E0
1.727435051E1,-1.126049995E0,-1.308795071E1,1.891050100E0
1.729435051E1,-1.126049995E0,-1.308795071E1,1.891050100E0
1.731435051E1,-1.126049995E0,-1.308795071E1,1.891050100E0
1.733435051E1,-1.126049995E0,-1.308795071E1,1.891050100E0
1.735435051E1,1.611000061E0,-7.132050514E0,3.780000210E-1
1.737435051E1,1.611000061E0,-7.132050514E0,3.780000210E-1
1.739435051E1,4.407000065E0,-8.491950035E0,-2.053050041E0
1.741435051E1,4.407000065E0,-8.491950035E0,-2.053050041E0
1.743435051E1,4.407000065E0,-8.491950035E0,-2.053050041E0
1.745435051E1,4.407000065E0,-8.491950035E0,-2.053050041E0
1.747435051E1,4.407000065E0,-8.491950035E0,-2.053050041E0
1.749435051E1,6.169050217E0,-7.648950577E0,3.805950165E0
1.751435051E1,6.169050217E0,-7.648950577E0,3.805950165E0
1.753435051E1,2.607000113E0,-1.008105087E1,-2.187000036E0
1.755435051E1,2.607000113E0,-1.008105087E1,-2.187000036E0
1.757435051E1,2.607000113E0,-1.008105087E1,-2.187000036E0
1.759435051E1,1.189950109E0,-9.295950890E0,2.236050129E0
1.761435051E1,1.189950109E0,-9.295950890E0,2.236050129E0
1.763435051E1,1.189950109E0,-9.295950890E0,2.236050129E0
1.765435051E1,1.189950109E0,-9.295950890E0,2.236050129E0
1.767435051E1,1.189950109E0,-9.295950890E0,2.236050129E0
1.769435051E1,1.189950109E0,-9.295950890E0,2.236050129E0
1.771435051E1,1.189950109E0,-9.295950890E0,2.236050129E0
1.773435051E1,4.771050453E0,-8.836050034E0,-1.075950027E0
1.775435051E1,4.771050453E0,-8.836050034E0,-1.075950027E0
1.777435051E1,4.771050453E0,-8.836050034E0,-1.075950027E0
1.779435051E1,4.771050453E0,-8.836050034E0,-1.075950027E0
1.781435051E1,4.771050453E0,-8.836050034E0,-1.075950027E0
1.783435051E1,5.689950466E0,-8.701950073E0,-1.018950105E0
1.785435051E1,5.689950466E0,-8.701950073E0,-1.018950105E0
1.787435051E1,5.173050404E0,-8.626049995E0,-7.890000343E-1
1.789435051E1,5.173050404E0,-8.626049995E0,-7.890000343E-1
1.791435051E1,5.173050404E0,-8.626049995E0,-7.890000343E-1
1.793435051E1,5.173050404E0,-8.626049995E0,-7.890000343E-1
1.795435051E1,5.173050404E0,-8.626049995E0,-7.890000343E-1
1.797435051E1,3.622050285E0,-8.740950584E0,-3.679500222E-1
1.799435051E1,3.622050285E0,-8.740950584E0,-3.679500222E-1
1.801435051E1,3.622050285E0,-8.740950584E0,-3.679500222E-1
1.803435051E1,3.622050285E0,-8.740950584E0,-3.679500222E-1
1.805435051E1,3.622050285E0,-8.740950584E0,-3.679500222E-1
1.807435051E1,3.181950092E0,-6.997950554E0,-9.799500704E-1
1.809435051E1,3.181950092E0,-6.997950554E0,-9.799500704E-1
1.811435051E1,6.838950157E0,-8.032050133E0,-3.469950199E0
1.813435051E1,6.838950157E0,-8.032050133E0,-3.469950199E0
1.815435051E1,6.838950157E0,-8.032050133E0,-3.469950199E0
1.817435051E1,6.838950157E0,-8.032050133E0,-3.469950199E0
1.819435051E1,6.838950157E0,-8.032050133E0,-3.469950199E0
1.821435051E1,5.326050282E0,-8.607000351E0,-3.451050282E0
1.823435051E1,5.326050282E0,-8.607000351E0,-3.451050282E0
1.825435051E1,5.593950272E0,-9.065999985E0,-3.757050276E0
1.827435051E1,5.593950272E0,-9.065999985E0,-3.757050276E0
1.829435051E1,5.593950272E0,-9.065999985E0,-3.757050276E0
1.831435051E1,6.265050411E0,-5.887050152E0,7.990500331E-1
1.833435051E1,6.265050411E0,-5.887050152E0,7.990500331E-1
1.835435051E1,6.265050411E0,-5.887050152E0,7.990500331E-1
1.837435051E1,6.265050411E0,-5.887050152E0,7.990500331E-1
1.839435051E1,6.265050411E0,-5.887050152E0,7.990500331E-1
1.841435051E1,1.381950021E0,-8.587050438E0,-3.010050058E0
1.843435051E1,1.381950021E0,-8.587050438E0,-3.010050058E0
1.845435051E1,1.381950021E0,-8.587050438E0,-3.010050058E0
1.847435051E1,1.381950021E0,-8.587050438E0,-3.010050058E0
1.849435051E1,1.381950021E0,-8.587050438E0,-3.010050058E0
1.851435051E1,1.381950021E0,-8.587050438E0,-3.010050058E0
1.853435051E1,1.381950021E0,-8.587050438E0,-3.010050058E0
1.855435051E1,8.650500178E-1,-9.334050179E0,-2.551050186E0
1.857435051E1,8.650500178E-1,-9.334050179E0,-2.551050186E0
1.859435051E1,4.483950138E0,-7.438950539E0,-2.895000219E0
1.861435051E1,4.483950138E0,-7.438950539E0,-2.895000219E0
1.863435051E1,4.483950138E0,-7.438950539E0,-2.895000219E0
1.865435051E1,7.911000252E0,-1.475400066E1,-1.018950105E0
1.867435051E1,7.911000252E0,-1.475400066E1,-1.018950105E0
1.869435051E1,8.026050568E0,-8.262000084E0,-1.038000107E0
1.871435051E1,8.026050568E0,-8.262000084E0,-1.038000107E0
1.873435051E1,8.026050568E0,-8.262000084E0,-1.038000107E0
1.875435051E1,8.026050568E0,-8.262000084E0,-1.038000107E0
1.877435051E1,8.026050568E0,-8.262000084E0,-1.038000107E0
1.879435051E1,8.026050568E0,-8.262000084E0,-1.038000107E0
1.881435051E1,8.026050568E0,-8.262000084E0,-1.038000107E0
1.883435051E1,8.026050568E0,-8.262000084E0,-1.038000107E0
1.885435051E1,8.026050568E0,-8.262000084E0,-1.038000107E0
1.887435051E1,8.026050568E0,-8.262000084E0,-1.038000107E0
1.889435051E1,1.750500053E-1,-8.913000107E0,-2.991000175E0
1.891435051E1,1.750500053E-1,-8.913000107E0,-2.991000175E0
1.893435051E1,1.516050100E0,-8.950950623E0,1.527000070E0
1.895435051E1,1.516050100E0,-8.950950623E0,1.527000070E0
1.897435051E1,1.516050100E0,-8.950950623E0,1.527000070E0
1.899435051E1,1.516050100E0,-8.950950623E0,1.527000070E0
1.901435051E1,1.516050100E0,-8.950950623E0,1.527000070E0
1.903435051E1,2.856000185E0,-8.262000084E0,1.756950140E0
1.905435051E1,2.856000185E0,-8.262000084E0,1.756950140E0
1.907435051E1,2.856000185E0,-8.262000084E0,1.756950140E0
1.909435051E1,2.856000185E0,-8.262000084E0,1.756950140E0
1.911435051E1,2.856000185E0,-8.262000084E0,1.756950140E0
1.913435051E1,5.307000160E0,-9.756000519E0,3.780000210E-1
1.915435051E1,5.307000160E0,-9.756000519E0,3.780000210E-1
1.917435051E1,5.269050121E0,-1.031100082E1,5.509500504E-1
1.919435051E1,5.269050121E0,-1.031100082E1,5.509500504E-1
1.921435051E1,5.269050121E0,-1.031100082E1,5.509500504E-1
1.923435051E1,5.269050121E0,-1.031100082E1,5.509500504E-1
1.925435051E1,5.269050121E0,-1.031100082E1,5.509500504E-1
1.927435051E1,7.240950108E0,-1.004295063E1,-1.095000029E0
1.929435051E1,7.240950108E0,-1.004295063E1,-1.095000029E0
1.931435051E1,7.240950108E0,-1.004295063E1,-1.095000029E0
1.933435051E1,7.240950108E0,-1.004295063E1,-1.095000029E0
1.935435051E1,7.240950108E0,-1.004295063E1,-1.095000029E0
1.937435051E1,1.879950047E0,-1.174695015E1,1.852950096E0
1.939435051E1,1.879950047E0,-1.174695015E1,1.852950096E0
1.941435051E1,1.879950047E0,-1.174695015E1,1.852950096E0
1.943435051E1,1.879950047E0,-1.174695015E1,1.852950096E0
1.945435051E1,1.879950047E0,-1.174695015E1,1.852950096E0
1.947435051E1,-2.428050041E0,-1.134495068E1,-2.685000181E0
1.949435051E1,-2.428050041E0,-1.134495068E1,-2.685000181E0
1.951435051E1,-2.428050041E0,-1.134495068E1,-2.685000181E0
1.953435051E1,-2.428050041E0,-1.134495068E1,-2.685000181E0
1.955435051E1,-2.428050041E0,-1.134495068E1,-2.685000181E0
1.957435051E1,-2.428050041E0,-1.134495068E1,-2.685000181E0
1.959435051E1,-2.428050041E0,-1.134495068E1,-2.685000181E0
1.961435051E1,2.416050196E0,-7.477050304E0,1.527000070E0
1.963435051E1,2.416050196E0,-7.477050304E0,1.527000070E0
1.965435051E1,2.052000046E0,-5.926050186E0,5.295000225E-2
1.967435051E1,2.052000046E0,-5.926050186E0,5.295000225E-2
1.969435051E1,2.052000046E0,-5.926050186E0,5.295000225E-2
1.971435051E1,3.162000179E0,-5.332050323E0,1.144050002E0
1.973435051E1,3.162000179E0,-5.332050323E0,1.144050002E0
1.975435051E1,7.528050423E0,-6.883050442E0,-1.248000026E0
1.977435051E1,7.528050423E0,-6.883050442E0,-1.248000026E0
1.979435051E1,7.528050423E0,-6.883050442E0,-1.248000026E0
1.981435051E1,7.528050423E0,-6.883050442E0,-1.248000026E0
1.983435051E1,7.528050423E0,-6.883050442E0,-1.248000026E0
1.985435051E1,7.528050423E0,-6.883050442E0,-1.248000026E0
1.987435051E1,7.528050423E0,-6.883050442E0,-1.248000026E0
1.989435051E1,7.528050423E0,-6.883050442E0,-1.248000026E0
1.991435051E1,7.528050423E0,-6.883050442E0,-1.248000026E0
1.993435051E1,7.528050423E0,-6.883050442E0,-1.248000026E0
1.995435051E1,7.500000596E-1,-1.425600052E1,3.210000098E-1
1.997435051E1,7.500000596E-1,-1.425600052E1,3.210000098E-1
1.999435051E1,9.600000381E-1,-1.013895035E1,4.609950066E0
2.001435051E1,9.600000381E-1,-1.013895035E1,4.609950066E0
2.003435051E1,9.600000381E-1,-1.013895035E1,4.609950066E0
2.005435051E1,9.600000381E-1,-1.013895035E1,4.609950066E0
2.007435051E1,9.600000381E-1,-1.013895035E1,4.609950066E0
2.009435051E1,9.600000381E-1,-9.258000374E0,3.556950092E0
2.011435051E1,9.600000381E-1,-9.258000374E0,3.556950092E0
2.013435051E1,1.975050092E0,-9.697950363E0,2.062950134E0
2.015435051E1,1.975050092E0,-9.697950363E0,2.062950134E0
2.017435051E1,1.975050092E0,-9.697950363E0,2.062950134E0
2.019435051E1,3.775050163E0,-9.315000534E0,-2.910000086E-1
2.021435051E1,3.775050163E0,-9.315000534E0,-2.910000086E-1
2.023435051E1,3.775050163E0,-9.315000534E0,-2.910000086E-1
2.025435051E1,3.775050163E0,-9.315000534E0,-2.910000086E-1
2.027435051E1,3.775050163E0,-9.315000534E0,-2.910000086E-1
2.029435051E1,3.775050163E0,-9.315000534E0,-2.910000086E-1
2.031435051E1,3.775050163E0,-9.315000534E0,-2.910000086E-1
2.033435051E1,4.579950333E0,-7.917000294E0,1.144050002E0
2.035435051E1,4.579950333E0,-7.917000294E0,1.144050002E0
2.037435051E1,4.579950333E0,-7.917000294E0,1.144050002E0
2.039435051E1,4.579950333E0,-7.917000294E0,1.144050002E0
2.041435051E1,4.579950333E0,-7.917000294E0,1.144050002E0
2.043435051E1,4.579950333E0,-7.917000294E0,1.144050002E0
2.045435051E1,4.579950333E0,-7.917000294E0,1.144050002E0
2.047435051E1,4.599000454E0,-1.033005047E1,2.274000168E0
2.049435051E1,4.599000454E0,-1.033005047E1,2.274000168E0
2.051435051E1,4.599000454E0,-1.033005047E1,2.274000168E0
2.053435051E1,4.369050026E0,-1.111500072E1,1.297050118E0
2.055435051E1,4.369050026E0,-1.111500072E1,1.297050118E0
2.057435051E1,2.626050234E0,-1.036800003E1,-2.838000059E0
2.059435051E1,2.626050234E0,-1.036800003E1,-2.838000059E0
2.061435051E1,2.626050234E0,-1.036800003E1,-2.838000059E0
2.063435051E1,2.626050234E0,-1.036800003E1,-2.838000059E0
2.065435051E1,2.626050234E0,-1.036800003E1,-2.838000059E0
2.067435051E1,7.509000301E0,-9.162000656E0,-1.570500135E-1
2.069435051E1,7.509000301E0,-9.162000656E0,-1.570500135E-1
2.071435051E1,3.142950058E0,-1.230195045E1,5.031000137E0
2.073435051E1,3.142950058E0,-1.230195045E1,5.031000137E0
2.075435051E1,3.142950058E0,-1.230195045E1,5.031000137E0
2.077435051E1,2.301000118E0,-1.789395142E1,2.293050051E0
2.079435051E1,2.301000118E0,-1.789395142E1,2.293050051E0
2.081435051E1,1.324050069E0,-7.668000221E0,-1.746000051E0
2.083435051E1,1.324050069E0,-7.668000221E0,-1.746000051E0
2.085435051E1,1.324050069E0,-7.668000221E0,-1.746000051E0
2.087435051E1,1.324050069E0,-7.668000221E0,-1.746000051E0
2.089435051E1,1.324050069E0,-7.668000221E0,-1.746000051E0
2.091435051E1,4.063050270E0,-7.324050426E0,-3.870000243E-1
2.093435051E1,4.063050270E0,-7.324050426E0,-3.870000243E-1
2.095435051E1,4.063050270E0,-7.324050426E0,-3.870000243E-1
2.097435051E1,4.063050270E0,-7.324050426E0,-3.870000243E-1
2.099435051E1,4.063050270E0,-7.324050426E0,-3.870000243E-1
2.101435051E1,-7.304999977E-2,-4.624050140E0,7.039500475E-1
2.103435051E1,-7.304999977E-2,-4.624050140E0,7.039500475E-1
2.105435051E1,2.262000084E0,-5.868000507E0,-2.473950148E0
2.107435051E1,2.262000084E0,-5.868000507E0,-2.473950148E0
2.109435051E1,2.262000084E0,-5.868000507E0,-2.473950148E0
2.111435051E1,2.262000084E0,-5.868000507E0,-2.473950148E0
2.113435051E1,2.262000084E0,-5.868000507E0,-2.473950148E0
2.115435051E1,1.223895073E1,-1.054095078E1,-5.590500236E-1
2.117435051E1,1.223895073E1,-1.054095078E1,-5.590500236E-1
2.119435051E1,1.223895073E1,-1.054095078E1,-5.590500236E-1
2.121435051E1,1.223895073E1,-1.054095078E1,-5.590500236E-1
2.123435051E1,1.223895073E1,-1.054095078E1,-5.590500236E-1
2.125435051E1,6.130950451E0,-1.528995037E1,1.470000029E0
2.127435051E1,6.130950451E0,-1.528995037E1,1.470000029E0
2.129435051E1,6.130950451E0,-1.528995037E1,1.470000029E0
2.131435051E1,6.130950451E0,-1.528995037E1,1.470000029E0
2.133435051E1,6.130950451E0,-1.528995037E1,1.470000029E0
2.135435051E1,6.130950451E0,-1.528995037E1,1.470000029E0
2.137435051E1,6.130950451E0,-1.528995037E1,1.470000029E0
2.139435051E1,-1.879500151E-1,-1.000500011E1,5.280000210E0
2.141435051E1,-1.879500151E-1,-1.000500011E1,5.280000210E0
2.143435051E1,-1.879500151E-1,-1.000500011E1,5.280000210E0
2.145435051E1,-1.879500151E-1,-1.000500011E1,5.280000210E0
2.147435051E1,-1.879500151E-1,-1.000500011E1,5.280000210E0
2.149435051E1,2.683950186E0,-8.989950180E0,-3.949050188E0
2.151435051E1,2.683950186E0,-8.989950180E0,-3.949050188E0
2.153435051E1,3.142950058E0,-8.722050667E0,1.795050144E0
2.155435051E1,3.142950058E0,-8.722050667E0,1.795050144E0
2.157435051E1,3.142950058E0,-8.722050667E0,1.795050144E0
2.159435051E1,4.273050308E0,-9.352950096E0,3.364950180E0
2.161435051E1,4.273050308E0,-9.352950096E0,3.364950180E0
2.163435051E1,3.736950159E0,-8.089950562E0,1.660950065E0
2.165435051E1,3.736950159E0,-8.089950562E0,1.660950065E0
2.167435051E1,3.736950159E0,-8.089950562E0,1.660950065E0
2.169435051E1,3.736950159E0,-8.089950562E0,1.660950065E0
2.171435051E1,3.736950159E0,-8.089950562E0,1.660950065E0
2.173435051E1,4.465050220E0,-9.850950241E0,7.990500331E-1
2.175435051E1,4.465050220E0,-9.850950241E0,7.990500331E-1
2.177435051E1,4.465050220E0,-9.850950241E0,7.990500331E-1
2.179435051E1,4.465050220E0,-9.850950241E0,7.990500331E-1
2.181435051E1,4.465050220E0,-9.850950241E0,7.990500331E-1
2.183435051E1,8.026050568E0,-1.027305031E1,1.642050028E0
2.185435051E1,8.026050568E0,-1.027305031E1,1.642050028E0
2.187435051E1,1.202895069E1,-1.230195045E1,-7.702050209E0
2.189435051E1,1.202895069E1,-1.230195045E1,-7.702050209E0
2.191435051E1,6.820050240E0,-1.174695015E1,-2.034000158E0
2.193435051E1,6.820050240E0,-1.174695015E1,-2.034000158E0
2.195435051E1,6.820050240E0,-1.174695015E1,-2.034000158E0
2.197435051E1,1.114050031E0,-1.239795017E1,4.360949993E0
2.199435051E1,1.114050031E0,-1.239795017E1,4.360949993E0
2.201435051E1,1.114050031E0,-1.239795017E1,4.360949993E0
2.203435051E1,1.114050031E0,-1.239795017E1,4.360949993E0
2.205435051E1,1.114050031E0,-1.239795017E1,4.360949993E0
2.207435051E1,-5.710500479E-1,-9.046950340E0,-1.114050031E0
2.209435051E1,-5.710500479E-1,-9.046950340E0,-1.114050031E0
2.211435051E1,-2.449500114E-1,-5.887050152E0,1.125000000E0
2.213435051E1,-2.449500114E-1,-5.887050152E0,1.125000000E0
2.215435051E1,-2.449500114E-1,-5.887050152E0,1.125000000E0
2.217435051E1,-2.449500114E-1,-5.887050152E0,1.125000000E0
2.219435051E1,-2.449500114E-1,-5.887050152E0,1.125000000E0
2.221435051E1,1.707000136E0,-6.424050331E0,1.431000113E0
2.223435051E1,1.707000136E0,-6.424050331E0,1.431000113E0
2.225435051E1,5.010000467E-1,-5.503950119E0,7.990500331E-1
2.227435051E1,5.010000467E-1,-5.503950119E0,7.990500331E-1
2.229435051E1,5.010000467E-1,-5.503950119E0,7.990500331E-1
2.231435051E1,1.822050095E0,-5.007000446E0,1.029000044E0
2.233435051E1,1.822050095E0,-5.007000446E0,1.029000044E0
2.235435051E1,1.822050095E0,-5.007000446E0,1.029000044E0
2.237435051E1,1.822050095E0,-5.007000446E0,1.029000044E0
2.239435051E1,1.822050095E0,-5.007000446E0,1.029000044E0
2.241435051E1,1.822050095E0,-5.007000446E0,1.029000044E0
2.243435051E1,1.822050095E0,-5.007000446E0,1.029000044E0
2.245435051E1,1.822050095E0,-5.007000446E0,1.029000044E0
2.247435051E1,1.822050095E0,-5.007000446E0,1.029000044E0
2.249435051E1,1.822050095E0,-5.007000446E0,1.029000044E0
2.251435051E1,1.822050095E0,-5.007000446E0,1.029000044E0
2.253435051E1,1.822050095E0,-5.007000446E0,1.029000044E0
2.255435051E1,1.560000032E-1,-1.011900043E1,2.121000051E0
2.257435051E1,1.560000032E-1,-1.011900043E1,2.121000051E0
2.259435051E1,-3.366000175E0,-5.466000080E0,2.772000074E0
2.261435051E1,-3.366000175E0,-5.466000080E0,2.772000074E0
2.263435051E1,-3.366000175E0,-5.466000080E0,2.772000074E0
2.265435051E1,-5.710500479E-1,-1.279995060E1,4.974000454E0
2.267435051E1,-5.710500479E-1,-1.279995060E1,4.974000454E0
2.269435051E1,-1.500000060E-2,-1.057905006E1,2.215950012E0
2.271435051E1,-1.500000060E-2,-1.057905006E1,2.215950012E0
2.273435051E1,-1.500000060E-2,-1.057905006E1,2.215950012E0
2.275435051E1,-1.500000060E-2,-1.057905006E1,2.215950012E0
2.277435051E1,-1.500000060E-2,-1.057905006E1,2.215950012E0
2.279435051E1,3.085950136E0,-8.836050034E0,3.805950165E0
2.281435051E1,3.085950136E0,-8.836050034E0,3.805950165E0
2.283435051E1,3.085950136E0,-8.836050034E0,3.805950165E0
2.285435051E1,3.085950136E0,-8.836050034E0,3.805950165E0
2.287435051E1,3.085950136E0,-8.836050034E0,3.805950165E0
2.289435051E1,6.111000061E0,-8.626049995E0,1.374000072E0
2.291435051E1,6.111000061E0,-8.626049995E0,1.374000072E0
2.293435051E1,4.177050114E0,-8.338950157E0,-2.377950191E0
2.295435051E1,4.177050114E0,-8.338950157E0,-2.377950191E0
2.297435051E1,4.426050186E0,-1.036800003E1,3.400500119E-1
2.299435051E1,4.426050186E0,-1.036800003E1,3.400500119E-1
2.301435051E1,4.426050186E0,-1.036800003E1,3.400500119E-1
2.303435051E1,5.671050072E0,-1.050195026E1,3.270000219E0
2.305435051E1,5.671050072E0,-1.050195026E1,3.270000219E0
2.307435051E1,5.671050072E0,-1.050195026E1,3.270000219E0
2.309435051E1,5.671050072E0,-1.050195026E1,3.270000219E0
2.311435051E1,5.671050072E0,-1.050195026E1,3.270000219E0
2.313435051E1,9.040950775E0,-1.260900021E1,-6.016950130E0
2.315435051E1,9.040950775E0,-1.260900021E1,-6.016950130E0
2.317435051E1,4.599000454E0,-9.697950363E0,3.691050291E0
2.319435051E1,4.599000454E0,-9.697950363E0,3.691050291E0
2.321435051E1,4.599000454E0,-9.697950363E0,3.691050291E0
2.323435051E1,4.599000454E0,-9.697950363E0,3.691050291E0
2.325435051E1,4.599000454E0,-9.697950363E0,3.691050291E0
2.327435051E1,8.260500431E-1,-1.613205147E1,2.542050123E0
2.329435051E1,8.260500431E-1,-1.613205147E1,2.542050123E0
2.331435051E1,7.110000253E-1,-7.438950539E0,-2.224950075E0
2.333435051E1,7.110000253E-1,-7.438950539E0,-2.224950075E0
2.335435051E1,7.110000253E-1,-7.438950539E0,-2.224950075E0
2.337435051E1,6.540000439E-1,-7.458000183E0,2.044049978E0
2.339435051E1,6.540000439E-1,-7.458000183E0,2.044049978E0
2.341435051E1,6.540000439E-1,-7.458000183E0,2.044049978E0
2.343435051E1,6.540000439E-1,-7.458000183E0,2.044049978E0
2.345435051E1,6.540000439E-1,-7.458000183E0,2.044049978E0
2.347435051E1,6.540000439E-1,-7.458000183E0,2.044049978E0
2.349435051E1,6.540000439E-1,-7.458000183E0,2.044049978E0
2.351435051E1,-3.790500164E-1,-5.752950191E0,9.139500260E-1
2.353435051E1,-3.790500164E-1,-5.752950191E0,9.139500260E-1
2.355435051E1,-3.790500164E-1,-5.752950191E0,9.139500260E-1
2.357435051E1,-3.790500164E-1,-5.752950191E0,9.139500260E-1
2.359435051E1,-3.790500164E-1,-5.752950191E0,9.139500260E-1
2.361435051E1,8.199000359E0,-9.697950363E0,-3.757050276E0
2.363435051E1,8.199000359E0,-9.697950363E0,-3.757050276E0
2.365435051E1,1.449900055E1,-1.186200047E1,-3.679500222E-1
2.367435051E1,1.449900055E1,-1.186200047E1,-3.679500222E-1
2.369435051E1,1.449900055E1,-1.186200047E1,-3.679500222E-1
2.371435051E1,7.165050507E0,-9.199950218E0,-1.879950047E0
2.373435051E1,7.165050507E0,-9.199950218E0,-1.879950047E0
2.375435051E1,3.277050257E0,-1.350900078E1,1.240050077E0
2.377435051E1,3.277050257E0,-1.350900078E1,1.240050077E0
2.379435051E1,3.277050257E0,-1.350900078E1,1.240050077E0
2.381435051E1,3.277050257E0,-1.350900078E1,1.240050077E0
2.383435051E1,3.277050257E0,-1.350900078E1,1.240050077E0
2.385435051E1,-1.489950061E0,-6.595950127E0,2.580000162E0
2.387435051E1,-1.489950061E0,-6.595950127E0,2.580000162E0
2.389435051E1,-4.170000255E-1,-1.105800056E1,4.762950420E0
2.391435051E1,-4.170000255E-1,-1.105800056E1,4.762950420E0
2.393435051E1,-4.170000255E-1,-1.105800056E1,4.762950420E0
2.395435051E1,-7.050000429E-1,-8.913000107E0,-1.785000086E0
2.397435051E1,-7.050000429E-1,-8.913000107E0,-1.785000086E0
2.399435051E1,3.201000214E0,-9.142950058E0,3.970500231E-1
2.401435051E1,3.201000214E0,-9.142950058E0,3.970500231E-1
2.403435051E1,3.201000214E0,-9.142950058E0,3.970500231E-1
2.405435051E1,3.201000214E0,-9.142950058E0,3.970500231E-1
2.407435051E1,3.201000214E0,-9.142950058E0,3.970500231E-1
2.409435051E1,5.805000305E0,-8.395950317E0,1.756950140E0
2.411435051E1,5.805000305E0,-8.395950317E0,1.756950140E0
2.413435051E1,5.805000305E0,-8.395950317E0,1.756950140E0
2.415435051E1,5.805000305E0,-8.395950317E0,1.756950140E0
2.417435051E1,5.805000305E0,-8.395950317E0,1.756950140E0
2.419435051E1,4.157999992E0,-1.004295063E1,1.603950024E0
2.421435051E1,4.157999992E0,-1.004295063E1,1.603950024E0
2.423435051E1,3.718050241E0,-1.098105049E1,1.623000026E0
2.425435051E1,3.718050241E0,-1.098105049E1,1.623000026E0
2.427435051E1,3.718050241E0,-1.098105049E1,1.623000026E0
2.429435051E1,3.718050241E0,-1.098105049E1,1.623000026E0
2.431435051E1,3.718050241E0,-1.098105049E1,1.623000026E0
2.433435051E1,9.214050293E0,-1.236000061E1,-1.018950105E0
2.435435051E1,9.214050293E0,-1.236000061E1,-1.018950105E0
2.437435051E1,6.283950329E0,-1.157505035E1,-2.224950075E0
2.439435051E1,6.283950329E0,-1.157505035E1,-2.224950075E0
2.441435051E1,6.283950329E0,-1.157505035E1,-2.224950075E0
2.443435051E1,6.283950329E0,-1.157505035E1,-2.224950075E0
2.445435051E1,6.283950329E0,-1.157505035E1,-2.224950075E0
2.447435051E1,6.283950329E0,-1.157505035E1,-2.224950075E0
2.449435051E1,6.283950329E0,-1.157505035E1,-2.224950075E0
2.451435051E1,6.283950329E0,-1.157505035E1,-2.224950075E0
2.453435051E1,6.283950329E0,-1.157505035E1,-2.224950075E0
2.455435051E1,6.283950329E0,-1.157505035E1,-2.224950075E0
2.457435051E1,2.205000073E-2,-7.419000149E0,2.619000196E0
2.459435051E1,2.205000073E-2,-7.419000149E0,2.619000196E0
2.461435051E1,2.205000073E-2,-7.419000149E0,2.619000196E0
2.463435051E1,2.205000073E-2,-7.419000149E0,2.619000196E0
2.465435051E1,2.205000073E-2,-7.419000149E0,2.619000196E0
2.467435051E1,2.569050074E0,-6.213000298E0,8.760000467E-1
2.469435051E1,2.569050074E0,-6.213000298E0,8.760000467E-1
2.471435051E1,2.569050074E0,-6.213000298E0,8.760000467E-1
2.473435051E1,2.569050074E0,-6.213000298E0,8.760000467E-1
2.475435051E1,2.569050074E0,-6.213000298E0,8.760000467E-1
2.477435051E1,-6.850500107E-1,-4.489950180E0,2.250000089E-1
2.479435051E1,-6.850500107E-1,-4.489950180E0,2.250000089E-1
2.481435051E1,5.824050426E0,-8.587050438E0,-3.316950083E0
2.483435051E1,5.824050426E0,-8.587050438E0,-3.316950083E0
2.485435051E1,5.824050426E0,-8.587050438E0,-3.316950083E0
2.487435051E1,5.824050426E0,-8.587050438E0,-3.316950083E0
2.489435051E1,5.824050426E0,-8.587050438E0,-3.316950083E0
2.491435051E1,1.639500046E1,-7.993950367E0,2.464950085E0
2.493435051E1,1.639500046E1,-7.993950367E0,2.464950085E0
2.495435051E1,6.169050217E0,-1.331700039E1,-1.950000077E-1
2.497435051E1,6.169050217E0,-1.331700039E1,-1.950000077E-1
2.499435051E1,6.169050217E0,-1.331700039E1,-1.950000077E-1
2.501435051E1,9.990000725E-1,-1.406400108E1,2.311950207E0
2.503435051E1,9.990000725E-1,-1.406400108E1,2.311950207E0
2.505435051E1,-2.122050047E0,-6.730050087E0,3.400500119E-1
2.507435051E1,-2.122050047E0,-6.730050087E0,3.400500119E-1
2.509435051E1,-2.122050047E0,-6.730050087E0,3.400500119E-1
2.511435051E1,-2.122050047E0,-6.730050087E0,3.400500119E-1
2.513435051E1,-2.122050047E0,-6.730050087E0,3.400500119E-1
2.515435051E1,-4.170000255E-1,-1.048305035E1,4.744050026E0
2.517435051E1,-4.170000255E-1,-1.048305035E1,4.744050026E0
2.519435051E1,-4.170000255E-1,-1.048305035E1,4.744050026E0
2.521435051E1,-4.170000255E-1,-1.048305035E1,4.744050026E0
2.523435051E1,-4.170000255E-1,-1.048305035E1,4.744050026E0
2.525435051E1,3.334950209E0,-8.644950867E0,8.190000653E-1
2.527435051E1,3.334950209E0,-8.644950867E0,8.190000653E-1
2.529435051E1,4.693950176E0,-8.319000244E0,3.231000185E0
2.531435051E1,4.693950176E0,-8.319000244E0,3.231000185E0
2.533435051E1,4.693950176E0,-8.319000244E0,3.231000185E0
2.535435051E1,4.693950176E0,-8.319000244E0,3.231000185E0
2.537435051E1,4.693950176E0,-8.319000244E0,3.231000185E0
2.539435051E1,4.042950153E0,-8.950950623E0,-7.309500575E-1
2.541435051E1,4.042950153E0,-8.950950623E0,-7.309500575E-1
2.543435051E1,4.042950153E0,-8.950950623E0,-7.309500575E-1
2.545435051E1,4.042950153E0,-8.950950623E0,-7.309500575E-1
2.547435051E1,4.042950153E0,-8.950950623E0,-7.309500575E-1
2.549435051E1,4.483950138E0,-1.073205090E1,2.542050123E0
2.551435051E1,4.483950138E0,-1.073205090E1,2.542050123E0
2.553435051E1,4.483950138E0,-1.073205090E1,2.542050123E0
2.555435051E1,4.483950138E0,-1.073205090E1,2.542050123E0
2.557435051E1,4.483950138E0,-1.073205090E1,2.542050123E0
2.559435051E1,4.483950138E0,-1.073205090E1,2.542050123E0
2.561435051E1,4.483950138E0,-1.073205090E1,2.542050123E0
2.563435051E1,7.911000252E0,-1.040700054E1,-2.530950069E0
2.565435051E1,7.911000252E0,-1.040700054E1,-2.530950069E0
2.567435051E1,7.911000252E0,-1.040700054E1,-2.530950069E0
2.569435051E1,7.911000252E0,-1.040700054E1,-2.530950069E0
2.571435051E1,7.911000252E0,-1.040700054E1,-2.530950069E0
2.573435051E1,3.028050184E0,-1.586400032E1,2.619000196E0
2.575435051E1,3.028050184E0,-1.586400032E1,2.619000196E0
2.577435051E1,7.309500575E-1,-1.174695015E1,3.460950136E0
2.579435051E1,7.309500575E-1,-1.174695015E1,3.460950136E0
2.581435051E1,7.309500575E-1,-1.174695015E1,3.460950136E0
2.583435051E1,3.280500174E-1,-7.036050320E0,9.105000645E-2
2.585435051E1,3.280500174E-1,-7.036050320E0,9.105000645E-2
2.587435051E1,3.280500174E-1,-7.036050320E0,9.105000645E-2
2.589435051E1,3.280500174E-1,-7.036050320E0,9.105000645E-2
2.591435051E1,3.280500174E-1,-7.036050320E0,9.105000645E-2
2.593435051E1,3.280500174E-1,-7.036050320E0,9.105000645E-2
2.595435051E1,3.280500174E-1,-7.036050320E0,9.105000645E-2
2.597435051E1,5.770500302E-1,-5.848950386E0,2.820000052E-1
2.599435051E1,5.770500302E-1,-5.848950386E0,2.820000052E-1
2.601435051E1,1.132950068E0,-5.140950203E0,5.295000225E-2
2.603435051E1,1.132950068E0,-5.140950203E0,5.295000225E-2
2.605435051E1,1.132950068E0,-5.140950203E0,5.295000225E-2
2.607435051E1,4.963050365E0,-8.166000366E0,-1.573950052E0
2.609435051E1,4.963050365E0,-8.166000366E0,-1.573950052E0
2.611435051E1,1.097505093E1,-1.272405052E1,-5.097000122E0
2.613435051E1,1.097505093E1,-1.272405052E1,-5.097000122E0
2.615435051E1,1.605000114E1,-1.258995056E1,1.336050034E0
2.617435051E1,1.605000114E1,-1.258995056E1,1.336050034E0
2.619435051E1,1.605000114E1,-1.258995056E1,1.336050034E0
2.621435051E1,5.383950233E0,-1.241700077E1,-1.324950099E0
2.623435051E1,5.383950233E0,-1.241700077E1,-1.324950099E0
2.625435051E1,5.383950233E0,-1.241700077E1,-1.324950099E0
2.627435051E1,5.383950233E0,-1.241700077E1,-1.324950099E0
2.629435051E1,5.383950233E0,-1.241700077E1,-1.324950099E0
2.631435051E1,-8.389500380E-1,-6.997950554E0,3.423000097E0
2.633435051E1,-8.389500380E-1,-6.997950554E0,3.423000097E0
2.635435051E1,-7.304999977E-2,-1.036800003E1,4.609950066E0
2.637435051E1,-7.304999977E-2,-1.036800003E1,4.609950066E0
2.639435051E1,-7.304999977E-2,-1.036800003E1,4.609950066E0
2.641435051E1,-7.304999977E-2,-1.036800003E1,4.609950066E0
2.643435051E1,-7.304999977E-2,-1.036800003E1,4.609950066E0
2.645435051E1,-7.304999977E-2,-1.036800003E1,4.609950066E0
2.647435051E1,-7.304999977E-2,-1.036800003E1,4.609950066E0
2.649435051E1,2.856000185E0,-8.338950157E0,2.809950113E0
2.651435051E1,2.856000185E0,-8.338950157E0,2.809950113E0
2.653435051E1,2.856000185E0,-8.338950157E0,2.809950113E0
2.655435051E1,4.138950348E0,-8.779050827E0,3.001950026E0
2.657435051E1,4.138950348E0,-8.779050827E0,3.001950026E0
2.659435051E1,4.138950348E0,-8.779050827E0,3.001950026E0
2.661435051E1,4.138950348E0,-8.779050827E0,3.001950026E0
2.663435051E1,4.138950348E0,-8.779050827E0,3.001950026E0
2.665435051E1,4.138950348E0,-8.779050827E0,3.001950026E0
2.667435051E1,4.138950348E0,-8.779050827E0,3.001950026E0
2.669435051E1,5.211000443E0,-1.021500015E1,1.660950065E0
2.671435051E1,5.211000443E0,-1.021500015E1,1.660950065E0
2.673435051E1,5.211000443E0,-1.021500015E1,1.660950065E0
2.675435051E1,5.211000443E0,-1.021500015E1,1.660950065E0
2.677435051E1,5.211000443E0,-1.021500015E1,1.660950065E0
2.679435051E1,5.593950272E0,-1.009995079E1,8.190000653E-1
2.681435051E1,5.593950272E0,-1.009995079E1,8.190000653E-1
2.683435051E1,9.060000420E0,-1.257105064E1,-2.569950104E0
2.685435051E1,9.060000420E0,-1.257105064E1,-2.569950104E0
2.687435051E1,9.060000420E0,-1.257105064E1,-2.569950104E0
2.689435051E1,6.283950329E0,-1.023405075E1,3.970500231E-1
2.691435051E1,6.283950329E0,-1.023405075E1,3.970500231E-1
2.693435051E1,6.283950329E0,-1.023405075E1,3.970500231E-1
2.695435051E1,6.283950329E0,-1.023405075E1,3.970500231E-1
2.697435051E1,6.283950329E0,-1.023405075E1,3.970500231E-1
2.699435051E1,6.283950329E0,-1.023405075E1,3.970500231E-1
2.701435051E1,6.283950329E0,-1.023405075E1,3.970500231E-1
2.703435051E1,9.220500588E-1,-8.299950600E0,-5.806050301E0
2.705435051E1,9.220500588E-1,-8.299950600E0,-5.806050301E0
2.707435051E1,-5.320500135E-1,-7.419000149E0,1.354950070E0
2.709435051E1,-5.320500135E-1,-7.419000149E0,1.354950070E0
2.711435051E1,-5.320500135E-1,-7.419000149E0,1.354950070E0
2.713435051E1,1.305000067E0,-7.189950466E0,2.638050079E0
2.715435051E1,1.305000067E0,-7.189950466E0,2.638050079E0
2.717435051E1,1.687950134E0,-5.964000225E0,7.800000310E-1
2.719435051E1,1.687950134E0,-5.964000225E0,7.800000310E-1
2.721435051E1,1.687950134E0,-5.964000225E0,7.800000310E-1
2.723435051E1,1.687950134E0,-5.964000225E0,7.800000310E-1
2.725435051E1,1.687950134E0,-5.964000225E0,7.800000310E-1
2.727435051E1,4.063050270E0,-7.132050514E0,-1.095000029E0
2.729435051E1,4.063050270E0,-7.132050514E0,-1.095000029E0
2.731435051E1,4.063050270E0,-7.132050514E0,-1.095000029E0
2.733435051E1,4.063050270E0,-7.132050514E0,-1.095000029E0
2.735435051E1,4.063050270E0,-7.132050514E0,-1.095000029E0
2.737435051E1,1.492005062E1,-1.191900063E1,-1.383000016E0
2.739435051E1,1.492005062E1,-1.191900063E1,-1.383000016E0
2.741435051E1,1.492005062E1,-1.191900063E1,-1.383000016E0
2.743435051E1,1.492005062E1,-1.191900063E1,-1.383000016E0
2.745435051E1,1.492005062E1,-1.191900063E1,-1.383000016E0
2.747435051E1,1.492005062E1,-1.191900063E1,-1.383000016E0
2.749435051E1,1.492005062E1,-1.191900063E1,-1.383000016E0
2.751435051E1,8.070000410E-1,-1.096200085E1,3.193050146E0
2.753435051E1,8.070000410E-1,-1.096200085E1,3.193050146E0
2.755435051E1,-3.213000059E0,-6.289950371E0,2.734050035E0
2.757435051E1,-3.213000059E0,-6.289950371E0,2.734050035E0
2.759435051E1,-3.213000059E0,-6.289950371E0,2.734050035E0
2.761435051E1,-1.300500035E-1,-1.082805061E1,4.974000454E0
2.763435051E1,-1.300500035E-1,-1.082805061E1,4.974000454E0
2.765435051E1,-1.300500035E-1,-1.082805061E1,4.974000454E0
2.767435051E1,-1.300500035E-1,-1.082805061E1,4.974000454E0
2.769435051E1,-1.300500035E-1,-1.082805061E1,4.974000454E0
2.771435051E1,2.397000074E0,-8.779050827E0,-4.389000416E0
2.773435051E1,2.397000074E0,-8.779050827E0,-4.389000416E0
2.775435051E1,3.565050125E0,-8.683050156E0,3.576000214E0
2.777435051E1,3.565050125E0,-8.683050156E0,3.576000214E0
2.779435051E1,3.565050125E0,-8.683050156E0,3.576000214E0
2.781435051E1,3.565050125E0,-8.683050156E0,3.576000214E0
2.783435051E1,3.565050125E0,-8.683050156E0,3.576000214E0
2.785435051E1,5.230950356E0,-8.491950035E0,7.230000496E-1
2.787435051E1,5.230950356E0,-8.491950035E0,7.230000496E-1
2.789435051E1,3.105000257E0,-8.548950195E0,-1.383000016E0
2.791435051E1,3.105000257E0,-8.548950195E0,-1.383000016E0
2.793435051E1,3.105000257E0,-8.548950195E0,-1.383000016E0
2.795435051E1,4.522050381E0,-1.040700054E1,1.776000142E0
2.797435051E1,4.522050381E0,-1.040700054E1,1.776000142E0
2.799435051E1,4.522050381E0,-1.040700054E1,1.776000142E0
2.801435051E1,4.522050381E0,-1.040700054E1,1.776000142E0
2.803435051E1,4.522050381E0,-1.040700054E1,1.776000142E0
2.805435051E1,4.522050381E0,-1.040700054E1,1.776000142E0
2.807435051E1,4.522050381E0,-1.040700054E1,1.776000142E0
2.809435051E1,1.061205006E1,-1.193895054E1,-6.438000202E0
2.811435051E1,1.061205006E1,-1.193895054E1,-6.438000202E0
2.813435051E1,4.063050270E0,-9.793950081E0,2.982000113E0
2.813435051E1,4.063050270E0,-9.793950081E0,2.982000113E0
2.817435051E1,4.063050270E0,-9.793950081E0,2.982000113E0
2.819435051E1,1.707000136E0,-1.609395027E1,2.829000235E0
2.821435051E1,1.707000136E0,-1.609395027E1,2.829000235E0
2.823435051E1,-1.068000078E0,-1.414095020E1,3.270000219E0
2.825435051E1,-1.068000078E0,-1.414095020E1,3.270000219E0
2.827435051E1,-1.068000078E0,-1.414095020E1,3.270000219E0
2.829435051E1,-1.068000078E0,-1.414095020E1,3.270000219E0
2.831435051E1,-1.068000078E0,-1.414095020E1,3.270000219E0
2.833435051E1,1.055999994E0,-6.691950321E0,8.950500488E-1
2.835435051E1,1.055999994E0,-6.691950321E0,8.950500488E-1
2.837435051E1,1.055999994E0,-6.691950321E0,8.950500488E-1
2.839435051E1,1.055999994E0,-6.691950321E0,8.950500488E-1
2.841435051E1,1.055999994E0,-6.691950321E0,8.950500488E-1
2.843435051E1,1.055999994E0,-6.691950321E0,8.950500488E-1
2.845435051E1,1.055999994E0,-6.691950321E0,8.950500488E-1
2.847435051E1,1.055999994E0,-6.691950321E0,8.950500488E-1
2.849435051E1,1.055999994E0,-6.691950321E0,8.950500488E-1
2.851435051E1,1.055999994E0,-6.691950321E0,8.950500488E-1
2.853435051E1,1.055999994E0,-6.691950321E0,8.950500488E-1
2.855435051E1,1.055999994E0,-6.691950321E0,8.950500488E-1
2.857435051E1,8.199000359E0,-1.011900043E1,-4.695000172E0
2.859435051E1,8.199000359E0,-1.011900043E1,-4.695000172E0
2.861435051E1,1.285200024E1,-1.101900005E1,-4.177950382E0
2.863435051E1,1.285200024E1,-1.101900005E1,-4.177950382E0
2.865435051E1,1.285200024E1,-1.101900005E1,-4.177950382E0
2.867435051E1,7.854000568E0,-8.817000389E0,-1.000500023E-1
2.869435051E1,7.854000568E0,-8.817000389E0,-1.000500023E-1
2.871435051E1,7.854000568E0,-8.817000389E0,-1.000500023E-1
2.873435051E1,7.854000568E0,-8.817000389E0,-1.000500023E-1
2.875435051E1,7.854000568E0,-8.817000389E0,-1.000500023E-1
2.877435051E1,8.839500546E-1,-8.109000206E0,3.748050213E0
2.879435051E1,8.839500546E-1,-8.109000206E0,3.748050213E0
2.881435051E1,8.839500546E-1,-8.109000206E0,3.748050213E0
2.883435051E1,8.839500546E-1,-8.109000206E0,3.748050213E0
2.885435051E1,8.839500546E-1,-8.109000206E0,3.748050213E0
2.887435051E1,8.839500546E-1,-8.109000206E0,3.748050213E0
2.889435051E1,8.839500546E-1,-8.109000206E0,3.748050213E0
2.891435051E1,4.095000029E-2,-1.086600018E1,1.660950065E0
2.893435051E1,4.095000029E-2,-1.086600018E1,1.660950065E0
2.895435051E1,2.014050007E0,-9.142950058E0,-3.489000082E0
2.897435051E1,2.014050007E0,-9.142950058E0,-3.489000082E0
2.899435051E1,2.014050007E0,-9.142950058E0,-3.489000082E0
2.901435051E1,2.893950224E0,-8.836050034E0,2.944050074E0
2.903435051E1,2.893950224E0,-8.836050034E0,2.944050074E0
2.905435051E1,4.732950211E0,-9.028050423E0,3.289050102E0
2.907435051E1,4.732950211E0,-9.028050423E0,3.289050102E0
2.909435051E1,4.732950211E0,-9.028050423E0,3.289050102E0
2.911435051E1,4.732950211E0,-9.028050423E0,3.289050102E0
2.913435051E1,4.732950211E0,-9.028050423E0,3.289050102E0
2.915435051E1,3.603000164E0,-7.993950367E0,-2.340000123E-1
2.917435051E1,3.603000164E0,-7.993950367E0,-2.340000123E-1
2.919435051E1,3.603000164E0,-7.993950367E0,-2.340000123E-1
2.921435051E1,3.603000164E0,-7.993950367E0,-2.340000123E-1
2.923435051E1,3.603000164E0,-7.993950367E0,-2.340000123E-1
2.925435051E1,5.269050121E0,-1.098105049E1,2.062950134E0
2.927435051E1,5.269050121E0,-1.098105049E1,2.062950134E0
2.929435051E1,5.077050209E0,-1.033005047E1,1.354950070E0
2.931435051E1,5.077050209E0,-1.033005047E1,1.354950070E0
2.933435051E1,5.632950306E0,-1.069395065E1,-2.110050201E0
2.935435051E1,5.632950306E0,-1.069395065E1,-2.110050201E0
2.937435051E1,5.632950306E0,-1.069395065E1,-2.110050201E0
2.939435051E1,7.663050175E0,-1.115295029E1,-2.282999992E0
2.941435051E1,7.663050175E0,-1.115295029E1,-2.282999992E0
2.943435051E1,7.663050175E0,-1.115295029E1,-2.282999992E0
2.945435051E1,7.663050175E0,-1.115295029E1,-2.282999992E0
2.947435051E1,7.663050175E0,-1.115295029E1,-2.282999992E0
2.949435051E1,1.516050100E0,-1.733895111E1,2.560950041E0
2.951435051E1,1.516050100E0,-1.733895111E1,2.560950041E0
2.953435051E1,1.516050100E0,-1.733895111E1,2.560950041E0
2.955435051E1,1.516050100E0,-1.733895111E1,2.560950041E0
2.957435051E1,1.516050100E0,-1.733895111E1,2.560950041E0
2.959435051E1,1.516050100E0,-1.733895111E1,2.560950041E0
2.961435051E1,1.516050100E0,-1.733895111E1,2.560950041E0
2.963435051E1,2.281949997E0,-7.036050320E0,1.680000067E0
2.965435051E1,2.281949997E0,-7.036050320E0,1.680000067E0
2.967435051E1,2.914050102E0,-6.481050491E0,5.890500546E-1
2.969435051E1,2.914050102E0,-6.481050491E0,5.890500546E-1
2.971435051E1,2.914050102E0,-6.481050491E0,5.890500546E-1
2.973435051E1,2.140500098E-1,-6.213000298E0,2.820000052E-1
2.975435051E1,2.140500098E-1,-6.213000298E0,2.820000052E-1
2.977435051E1,2.140500098E-1,-6.213000298E0,2.820000052E-1
2.979435051E1,2.140500098E-1,-6.213000298E0,2.820000052E-1
2.981435051E1,2.140500098E-1,-6.213000298E0,2.820000052E-1
2.983435051E1,4.885950089E0,-8.701950073E0,-2.053050041E0
2.985435051E1,4.885950089E0,-8.701950073E0,-2.053050041E0
2.987435051E1,9.136950493E0,-1.144095039E1,-2.838000059E0
2.989435051E1,9.136950493E0,-1.144095039E1,-2.838000059E0
2.991435051E1,9.136950493E0,-1.144095039E1,-2.838000059E0
2.993435051E1,9.136950493E0,-1.144095039E1,-2.838000059E0
2.995435051E1,9.136950493E0,-1.144095039E1,-2.838000059E0
2.997435051E1,8.389950752E0,-7.956000328E0,5.509500504E-1
2.999435051E1,8.389950752E0,-7.956000328E0,5.509500504E-1
3.001435051E1,8.389950752E0,-7.956000328E0,5.509500504E-1
3.003435051E1,8.389950752E0,-7.956000328E0,5.509500504E-1
3.005435051E1,8.389950752E0,-7.956000328E0,5.509500504E-1
3.007435051E1,-1.432050109E0,-8.146950722E0,-1.669950128E0
3.009435051E1,-1.432050109E0,-8.146950722E0,-1.669950128E0
3.011435051E1,-3.136950254E0,-5.658000469E0,2.542050123E0
3.013435051E1,-3.136950254E0,-5.658000469E0,2.542050123E0
3.015435051E1,-3.136950254E0,-5.658000469E0,2.542050123E0
3.017435051E1,-3.136950254E0,-5.658000469E0,2.542050123E0
3.019435051E1,-3.136950254E0,-5.658000469E0,2.542050123E0
3.021435051E1,2.205000073E-2,-1.123005009E1,1.546050072E0
3.023435051E1,2.205000073E-2,-1.123005009E1,1.546050072E0
3.025435051E1,2.569050074E0,-8.875050545E0,-4.024950027E0
3.027435051E1,2.569050074E0,-8.875050545E0,-4.024950027E0
3.029435051E1,2.569050074E0,-8.875050545E0,-4.024950027E0
3.031435051E1,2.914050102E0,-8.607000351E0,4.591050148E0
3.033435051E1,2.914050102E0,-8.607000351E0,4.591050148E0
3.035435051E1,2.914050102E0,-8.607000351E0,4.591050148E0
3.037435051E1,2.914050102E0,-8.607000351E0,4.591050148E0
3.039435051E1,2.914050102E0,-8.607000351E0,4.591050148E0
3.041435051E1,2.914050102E0,-8.607000351E0,4.591050148E0
3.043435051E1,2.914050102E0,-8.607000351E0,4.591050148E0
3.045435051E1,2.914050102E0,-8.607000351E0,4.591050148E0
3.047435051E1,2.914050102E0,-8.607000351E0,4.591050148E0
3.049435051E1,2.914050102E0,-8.607000351E0,4.591050148E0
3.051435051E1,2.914050102E0,-8.607000351E0,4.591050148E0
3.053435051E1,2.914050102E0,-8.607000351E0,4.591050148E0
3.055435051E1,4.503000259E0,-9.832050323E0,3.289050102E0
3.057435051E1,4.503000259E0,-9.832050323E0,3.289050102E0
3.059435051E1,6.379950523E0,-1.046400070E1,1.795050144E0
3.061435051E1,6.379950523E0,-1.046400070E1,1.795050144E0
3.063435051E1,6.379950523E0,-1.046400070E1,1.795050144E0
3.065435051E1,6.379950523E0,-1.046400070E1,1.795050144E0
3.067435051E1,6.379950523E0,-1.046400070E1,1.795050144E0
3.069435051E1,6.379950523E0,-1.046400070E1,1.795050144E0
3.071435051E1,6.379950523E0,-1.046400070E1,1.795050144E0
3.073435051E1,6.379950523E0,-1.046400070E1,1.795050144E0
3.075435051E1,6.379950523E0,-1.046400070E1,1.795050144E0
3.077435051E1,6.379950523E0,-1.046400070E1,1.795050144E0
3.079435051E1,-1.471050024E0,-1.622805023E1,-1.189500093E-1
3.081435051E1,-1.471050024E0,-1.622805023E1,-1.189500093E-1
3.083435051E1,6.349500418E-1,-8.452950478E0,1.680000067E0
3.085435051E1,6.349500418E-1,-8.452950478E0,1.680000067E0
3.087435051E1,6.349500418E-1,-8.452950478E0,1.680000067E0
3.089435051E1,2.665050030E0,-7.573050499E0,-6.550500393E-1
3.091435051E1,2.665050030E0,-7.573050499E0,-6.550500393E-1
3.093435051E1,2.875050068E0,-7.552950382E0,-1.000050068E0
3.095435051E1,2.875050068E0,-7.552950382E0,-1.000050068E0
3.097435051E1,2.875050068E0,-7.552950382E0,-1.000050068E0
3.099435051E1,2.875050068E0,-7.552950382E0,-1.000050068E0
3.101435051E1,2.875050068E0,-7.552950382E0,-1.000050068E0
3.103435051E1,2.109000206E0,-6.193950176E0,1.795050144E0
3.105435051E1,2.109000206E0,-6.193950176E0,1.795050144E0
3.107435051E1,2.109000206E0,-6.193950176E0,1.795050144E0
3.109435051E1,2.109000206E0,-6.193950176E0,1.795050144E0
3.111435051E1,2.109000206E0,-6.193950176E0,1.795050144E0
3.113435051E1,5.058000088E0,-9.352950096E0,-6.093000412E0
3.115435051E1,5.058000088E0,-9.352950096E0,-6.093000412E0
3.117435051E1,7.738950253E0,-1.006200027E1,-1.975950122E0
3.119435051E1,7.738950253E0,-1.006200027E1,-1.975950122E0
3.121435051E1,7.738950253E0,-1.006200027E1,-1.975950122E0
3.123435051E1,7.738950253E0,-1.006200027E1,-1.975950122E0
3.125435051E1,7.738950253E0,-1.006200027E1,-1.975950122E0
3.127435051E1,7.509000301E0,-6.787050247E0,-8.850000501E-1
3.129435051E1,7.509000301E0,-6.787050247E0,-8.850000501E-1
3.131435051E1,5.938950062E0,-1.287705040E1,-4.050000105E-3
3.133435051E1,5.938950062E0,-1.287705040E1,-4.050000105E-3
3.135435051E1,5.938950062E0,-1.287705040E1,-4.050000105E-3
3.137435051E1,2.989950180E0,-1.686000061E1,-2.091000080E0
3.139435051E1,2.989950180E0,-1.686000061E1,-2.091000080E0
3.141435051E1,2.989950180E0,-1.686000061E1,-2.091000080E0
3.143435051E1,2.989950180E0,-1.686000061E1,-2.091000080E0
3.145435051E1,2.989950180E0,-1.686000061E1,-2.091000080E0
3.147435051E1,2.989950180E0,-1.686000061E1,-2.091000080E0
3.149435051E1,2.989950180E0,-1.686000061E1,-2.091000080E0
3.151435051E1,7.905000448E-2,-1.155600071E1,5.874000072E0
3.151435051E1,7.905000448E-2,-1.155600071E1,5.874000072E0
3.155435051E1,7.905000448E-2,-1.155600071E1,5.874000072E0
3.157435051E1,7.905000448E-2,-1.155600071E1,5.874000072E0
3.159435051E1,7.905000448E-2,-1.155600071E1,5.874000072E0
3.161435051E1,2.148000002E0,-9.181050301E0,-2.473950148E0
3.163435051E1,2.148000002E0,-9.181050301E0,-2.473950148E0
3.165435051E1,2.071050167E0,-8.358000755E0,3.480000257E0
3.167435051E1,2.071050167E0,-8.358000755E0,3.480000257E0
3.169435051E1,2.071050167E0,-8.358000755E0,3.480000257E0
3.171435051E1,2.071050167E0,-8.358000755E0,3.480000257E0
3.173435051E1,2.071050167E0,-8.358000755E0,3.480000257E0
3.175435051E1,2.071050167E0,-8.358000755E0,3.480000257E0
3.177435051E1,2.071050167E0,-8.358000755E0,3.480000257E0
3.179435051E1,2.071050167E0,-8.358000755E0,3.480000257E0
3.181435051E1,2.071050167E0,-8.358000755E0,3.480000257E0
3.183435051E1,2.071050167E0,-8.358000755E0,3.480000257E0
3.185435051E1,7.183950424E0,-8.913000107E0,1.411950111E0
3.187435051E1,7.183950424E0,-8.913000107E0,1.411950111E0
3.189435051E1,6.111000061E0,-9.583050728E0,7.230000496E-1
3.191435051E1,6.111000061E0,-9.583050728E0,7.230000496E-1
3.193435051E1,6.111000061E0,-9.583050728E0,7.230000496E-1
3.195435051E1,4.120050430E0,-1.027305031E1,3.019500077E-1
3.197435051E1,4.120050430E0,-1.027305031E1,3.019500077E-1
3.199435051E1,2.185950041E0,-9.889950752E0,-8.080500364E-1
3.201435051E1,2.185950041E0,-9.889950752E0,-8.080500364E-1
3.203435051E1,5.863050461E0,-1.299195099E1,2.250000089E-1
3.205435051E1,5.863050461E0,-1.299195099E1,2.250000089E-1
3.207435051E1,5.863050461E0,-1.299195099E1,2.250000089E-1
3.209435051E1,4.369050026E0,-1.004295063E1,1.258950114E0
3.211435051E1,4.369050026E0,-1.004295063E1,1.258950114E0
3.213435051E1,4.369050026E0,-1.004295063E1,1.258950114E0
3.215435051E1,4.369050026E0,-1.004295063E1,1.258950114E0
3.217435051E1,4.369050026E0,-1.004295063E1,1.258950114E0
3.219435051E1,4.050000310E-1,-1.326000023E1,2.925000191E0
3.221435051E1,4.050000310E-1,-1.326000023E1,2.925000191E0
3.223435051E1,4.050000310E-1,-1.326000023E1,2.925000191E0
3.225435051E1,4.050000310E-1,-1.326000023E1,2.925000191E0
3.227435051E1,4.050000310E-1,-1.326000023E1,2.925000191E0
3.229435051E1,4.050000310E-1,-1.326000023E1,2.925000191E0
3.231435051E1,4.050000310E-1,-1.326000023E1,2.925000191E0
3.233435051E1,2.722050190E0,-7.056000233E0,-5.590500236E-1
3.235435051E1,2.722050190E0,-7.056000233E0,-5.590500236E-1
3.237435051E1,2.416050196E0,-7.036050320E0,3.589500189E-1
3.239435051E1,2.416050196E0,-7.036050320E0,3.589500189E-1
3.241435051E1,2.416050196E0,-7.036050320E0,3.589500189E-1
3.243435051E1,2.416050196E0,-7.036050320E0,3.589500189E-1
3.245435051E1,2.416050196E0,-7.036050320E0,3.589500189E-1
3.247435051E1,2.416050196E0,-7.036050320E0,3.589500189E-1
3.249435051E1,2.416050196E0,-7.036050320E0,3.589500189E-1
3.251435051E1,2.416050196E0,-7.036050320E0,3.589500189E-1
3.253435051E1,2.416050196E0,-7.036050320E0,3.589500189E-1
3.255435051E1,2.416050196E0,-7.036050320E0,3.589500189E-1
3.257435051E1,1.043895054E1,-1.063605022E1,-3.144000053E0
3.259435051E1,1.043895054E1,-1.063605022E1,-3.144000053E0
3.261435051E1,1.043895054E1,-1.063605022E1,-3.144000053E0
3.263435051E1,1.043895054E1,-1.063605022E1,-3.144000053E0
3.265435051E1,1.043895054E1,-1.063605022E1,-3.144000053E0
3.267435051E1,6.475050449E0,-7.266000271E0,-1.153050065E0
3.269435051E1,6.475050449E0,-7.266000271E0,-1.153050065E0
3.271435051E1,3.411000252E0,-1.264695072E1,1.987050056E0
3.273435051E1,3.411000252E0,-1.264695072E1,1.987050056E0
3.275435051E1,3.411000252E0,-1.264695072E1,1.987050056E0
3.277435051E1,3.411000252E0,-1.264695072E1,1.987050056E0
3.279435051E1,3.411000252E0,-1.264695072E1,1.987050056E0
3.281435051E1,-1.738950133E0,-6.519000530E0,3.019500077E-1
3.283435051E1,-1.738950133E0,-6.519000530E0,3.019500077E-1
3.285435051E1,-1.738950133E0,-6.519000530E0,3.019500077E-1
3.287435051E1,-1.738950133E0,-6.519000530E0,3.019500077E-1
3.289435051E1,-1.738950133E0,-6.519000530E0,3.019500077E-1
3.291435051E1,1.956000090E0,-1.025295067E1,2.676000118E0
3.293435051E1,1.956000090E0,-1.025295067E1,2.676000118E0
3.295435051E1,1.956000090E0,-1.025295067E1,2.676000118E0
3.297435051E1,1.956000090E0,-1.025295067E1,2.676000118E0
3.299435051E1,1.956000090E0,-1.025295067E1,2.676000118E0
3.301435051E1,3.085950136E0,-8.242950439E0,1.738050103E0
3.303435051E1,3.085950136E0,-8.242950439E0,1.738050103E0
3.305435051E1,4.444950104E0,-9.065999985E0,2.944050074E0
3.307435051E1,4.444950104E0,-9.065999985E0,2.944050074E0
3.309435051E1,4.752000332E0,-8.913000107E0,2.215950012E0
3.309435051E1,4.752000332E0,-8.913000107E0,2.215950012E0
3.313435051E1,4.752000332E0,-8.913000107E0,2.215950012E0
3.315435051E1,3.583950281E0,-8.568000793E0,-1.095000029E0
3.317435051E1,3.583950281E0,-8.568000793E0,-1.095000029E0
3.319435051E1,3.583950281E0,-8.568000793E0,-1.095000029E0
3.321435051E1,3.583950281E0,-8.568000793E0,-1.095000029E0
3.323435051E1,3.583950281E0,-8.568000793E0,-1.095000029E0
3.325435051E1,4.675050259E0,-9.679050446E0,2.082000017E0
3.327435051E1,4.675050259E0,-9.679050446E0,2.082000017E0
3.329435051E1,4.675050259E0,-9.679050446E0,2.082000017E0
3.331435051E1,4.675050259E0,-9.679050446E0,2.082000017E0
3.333435051E1,4.675050259E0,-9.679050446E0,2.082000017E0
3.335435051E1,4.675050259E0,-9.679050446E0,2.082000017E0
3.337435051E1,4.675050259E0,-9.679050446E0,2.082000017E0
3.339435051E1,8.371050835E0,-1.172805023E1,-2.704050064E0
3.341435051E1,8.371050835E0,-1.172805023E1,-2.704050064E0
3.343435051E1,8.371050835E0,-1.172805023E1,-2.704050064E0
3.345435051E1,8.371050835E0,-1.172805023E1,-2.704050064E0
3.347435051E1,8.371050835E0,-1.172805023E1,-2.704050064E0
3.349435051E1,1.803000093E0,-9.870000839E0,6.391050339E0
3.351435051E1,1.803000093E0,-9.870000839E0,6.391050339E0
3.353435051E1,3.220050097E0,-1.440900040E1,3.613950253E0
3.355435051E1,3.220050097E0,-1.440900040E1,3.613950253E0
3.357435051E1,3.220050097E0,-1.440900040E1,3.613950253E0
3.359435051E1,3.220050097E0,-1.440900040E1,3.613950253E0
3.361435051E1,3.220050097E0,-1.440900040E1,3.613950253E0
3.363435051E1,3.220050097E0,-1.440900040E1,3.613950253E0
3.365435051E1,3.220050097E0,-1.440900040E1,3.613950253E0
3.367435051E1,3.220050097E0,-1.440900040E1,3.613950253E0
3.369435051E1,3.220050097E0,-1.440900040E1,3.613950253E0
3.371435051E1,3.220050097E0,-1.440900040E1,3.613950253E0
3.373435051E1,2.914050102E0,-7.285050392E0,-1.114050031E0
3.375435051E1,2.914050102E0,-7.285050392E0,-1.114050031E0
3.377435051E1,1.209000111E0,-8.319000244E0,-2.034000158E0
3.379435051E1,1.209000111E0,-8.319000244E0,-2.034000158E0
3.381435051E1,1.209000111E0,-8.319000244E0,-2.034000158E0
3.383435051E1,2.989950180E0,-7.975050449E0,-2.473950148E0
3.385435051E1,2.989950180E0,-7.975050449E0,-2.473950148E0
3.387435051E1,1.840950131E0,-6.960000515E0,4.549500346E-1
3.389435051E1,1.840950131E0,-6.960000515E0,4.549500346E-1
3.391435051E1,1.840950131E0,-6.960000515E0,4.549500346E-1
3.393435051E1,1.840950131E0,-6.960000515E0,4.549500346E-1
3.395435051E1,1.840950131E0,-6.960000515E0,4.549500346E-1
3.397435051E1,1.340700054E1,-7.687050343E0,2.503950119E0
3.399435051E1,1.340700054E1,-7.687050343E0,2.503950119E0
3.401435051E1,1.340700054E1,-7.687050343E0,2.503950119E0
3.403435051E1,1.340700054E1,-7.687050343E0,2.503950119E0
3.405435051E1,1.340700054E1,-7.687050343E0,2.503950119E0
3.407435051E1,4.157999992E0,-1.915800095E1,-3.679950237E0
3.409435051E1,4.157999992E0,-1.915800095E1,-3.679950237E0
3.411435051E1,4.157999992E0,-1.915800095E1,-3.679950237E0
3.413435051E1,4.157999992E0,-1.915800095E1,-3.679950237E0
3.415435051E1,4.157999992E0,-1.915800095E1,-3.679950237E0
3.417435051E1,4.157999992E0,-1.915800095E1,-3.679950237E0
3.419435051E1,4.157999992E0,-1.915800095E1,-3.679950237E0
3.421435051E1,6.730500460E-1,-1.201500034E1,5.185050011E0
3.423435051E1,6.730500460E-1,-1.201500034E1,5.185050011E0
3.425435051E1,6.730500460E-1,-1.201500034E1,5.185050011E0
3.427435051E1,6.730500460E-1,-1.201500034E1,5.185050011E0
3.429435051E1,6.730500460E-1,-1.201500034E1,5.185050011E0
3.431435051E1,1.860000134E0,-9.105000496E0,-3.183000088E0
3.433435051E1,1.860000134E0,-9.105000496E0,-3.183000088E0
3.435435051E1,2.914050102E0,-9.238950729E0,2.925000191E0
3.437435051E1,2.914050102E0,-9.238950729E0,2.925000191E0
3.439435051E1,2.914050102E0,-9.238950729E0,2.925000191E0
3.441435051E1,2.914050102E0,-9.238950729E0,2.925000191E0
3.443435051E1,2.914050102E0,-9.238950729E0,2.925000191E0
3.445435051E1,2.914050102E0,-9.238950729E0,2.925000191E0
3.447435051E1,2.914050102E0,-9.238950729E0,2.925000191E0
3.449435051E1,2.914050102E0,-9.238950729E0,2.925000191E0
3.451435051E1,2.914050102E0,-9.238950729E0,2.925000191E0
3.453435051E1,2.914050102E0,-9.238950729E0,2.925000191E0
3.455435051E1,4.234950066E0,-8.701950073E0,1.756950140E0
3.457435051E1,4.234950066E0,-8.701950073E0,1.756950140E0
3.459435051E1,4.234950066E0,-8.701950073E0,1.756950140E0
3.461435051E1,4.234950066E0,-8.701950073E0,1.756950140E0
3.463435051E1,4.234950066E0,-8.701950073E0,1.756950140E0
3.465435051E1,4.234950066E0,-8.701950073E0,1.756950140E0
3.467435051E1,4.234950066E0,-8.701950073E0,1.756950140E0
3.469435051E1,7.030950546E0,-1.232205105E1,-1.021005058E1
3.471435051E1,7.030950546E0,-1.232205105E1,-1.021005058E1
3.473435051E1,7.030950546E0,-1.232205105E1,-1.021005058E1
3.475435051E1,7.030950546E0,-1.232205105E1,-1.021005058E1
3.477435051E1,7.030950546E0,-1.232205105E1,-1.021005058E1
3.479435051E1,1.477050066E0,-9.334050179E0,2.293050051E0
3.481435051E1,1.477050066E0,-9.334050179E0,2.293050051E0
3.483435051E1,9.600000381E-1,-1.435095024E1,1.009950042E0
3.485435051E1,9.600000381E-1,-1.435095024E1,1.009950042E0
3.487435051E1,9.600000381E-1,-1.435095024E1,1.009950042E0
3.489435051E1,-7.810500264E-1,-1.159395027E1,-1.536000013E0
3.491435051E1,-7.810500264E-1,-1.159395027E1,-1.536000013E0
3.493435051E1,9.030000567E-1,-9.679050446E0,-2.340000123E-1
3.495435051E1,9.030000567E-1,-9.679050446E0,-2.340000123E-1
3.497435051E1,9.030000567E-1,-9.679050446E0,-2.340000123E-1
3.499435051E1,9.030000567E-1,-9.679050446E0,-2.340000123E-1
3.501435051E1,9.030000567E-1,-9.679050446E0,-2.340000123E-1
3.503435051E1,2.799000025E0,-6.079050064E0,-1.114050031E0
3.505435051E1,2.799000025E0,-6.079050064E0,-1.114050031E0
3.507435051E1,2.550000191E0,-6.768000126E0,3.589500189E-1
3.509435051E1,2.550000191E0,-6.768000126E0,3.589500189E-1
3.511435051E1,2.550000191E0,-6.768000126E0,3.589500189E-1
3.513435051E1,2.914050102E0,-6.001950264E0,7.039500475E-1
3.515435051E1,2.914050102E0,-6.001950264E0,7.039500475E-1
3.517435051E1,4.216050148E0,-6.615000248E0,3.589500189E-1
3.519435051E1,4.216050148E0,-6.615000248E0,3.589500189E-1
3.521435051E1,4.216050148E0,-6.615000248E0,3.589500189E-1
3.523435051E1,4.216050148E0,-6.615000248E0,3.589500189E-1
3.525435051E1,4.216050148E0,-6.615000248E0,3.589500189E-1
3.527435051E1,9.022050858E0,-8.185050011E0,-2.282999992E0
3.529435051E1,9.022050858E0,-8.185050011E0,-2.282999992E0
3.531435051E1,9.022050858E0,-8.185050011E0,-2.282999992E0
3.533435051E1,9.022050858E0,-8.185050011E0,-2.282999992E0
3.535435051E1,9.022050858E0,-8.185050011E0,-2.282999992E0
3.537435051E1,5.250000477E0,-8.875050545E0,-1.075950027E0
3.539435051E1,5.250000477E0,-8.875050545E0,-1.075950027E0
3.541435051E1,5.250000477E0,-8.875050545E0,-1.075950027E0
3.543435051E1,5.250000477E0,-8.875050545E0,-1.075950027E0
3.545435051E1,5.250000477E0,-8.875050545E0,-1.075950027E0
3.547435051E1,5.250000477E0,-8.875050545E0,-1.075950027E0
3.549435051E1,5.250000477E0,-8.875050545E0,-1.075950027E0
3.551435051E1,2.491950035E0,-1.103895092E1,1.987050056E0
3.553435051E1,2.491950035E0,-1.103895092E1,1.987050056E0
3.555435051E1,-4.170000255E-1,-1.029195023E1,-9.559050560E0
3.557435051E1,-4.170000255E-1,-1.029195023E1,-9.559050560E0
3.559435051E1,-4.170000255E-1,-1.029195023E1,-9.559050560E0
3.561435051E1,1.342950106E0,-6.844950199E0,5.625000477E0
3.563435051E1,1.342950106E0,-6.844950199E0,5.625000477E0
3.565435051E1,1.342950106E0,-6.844950199E0,5.625000477E0
3.567435051E1,1.342950106E0,-6.844950199E0,5.625000477E0
3.569435051E1,1.342950106E0,-6.844950199E0,5.625000477E0
3.571435051E1,1.342950106E0,-6.844950199E0,5.625000477E0
3.573435051E1,1.342950106E0,-6.844950199E0,5.625000477E0
3.575435051E1,2.473050117E0,-8.414999962E0,9.139500260E-1
3.577435051E1,2.473050117E0,-8.414999962E0,9.139500260E-1
3.579435051E1,2.473050117E0,-8.414999962E0,9.139500260E-1
3.581435051E1,2.473050117E0,-8.414999962E0,9.139500260E-1
3.583435051E1,2.473050117E0,-8.414999962E0,9.139500260E-1
3.585435051E1,4.005000114E0,-9.046950340E0,2.236050129E0
3.587435051E1,4.005000114E0,-9.046950340E0,2.236050129E0
3.589435051E1,4.369050026E0,-8.722050667E0,1.546050072E0
3.591435051E1,4.369050026E0,-8.722050667E0,1.546050072E0
3.593435051E1,4.369050026E0,-8.722050667E0,1.546050072E0
3.595435051E1,3.679950237E0,-8.950950623E0,1.009950042E0
3.597435051E1,3.679950237E0,-8.950950623E0,1.009950042E0
3.599435051E1,3.679950237E0,-8.950950623E0,1.009950042E0
3.601435051E1,3.679950237E0,-8.950950623E0,1.009950042E0
3.603435051E1,3.679950237E0,-8.950950623E0,1.009950042E0
3.605435051E1,3.679950237E0,-8.950950623E0,1.009950042E0
3.607435051E1,3.679950237E0,-8.950950623E0,1.009950042E0
3.609435051E1,4.693950176E0,-1.111500072E1,2.370000124E0
3.611435051E1,4.693950176E0,-1.111500072E1,2.370000124E0
3.613435051E1,4.426050186E0,-1.056000042E1,4.930500090E-1
3.615435051E1,4.426050186E0,-1.056000042E1,4.930500090E-1
3.617435051E1,4.426050186E0,-1.056000042E1,4.930500090E-1
3.619435051E1,7.050000191E0,-1.111500072E1,-3.910050154E0
3.621435051E1,7.050000191E0,-1.111500072E1,-3.910050154E0
3.623435051E1,5.134950161E0,-9.009000778E0,-8.269500136E-1
3.625435051E1,5.134950161E0,-9.009000778E0,-8.269500136E-1
3.627435051E1,2.301000118E0,-8.989950180E0,3.270000219E0
3.629435051E1,2.301000118E0,-8.989950180E0,3.270000219E0
3.631435051E1,2.301000118E0,-8.989950180E0,3.270000219E0
3.633435051E1,2.301000118E0,-8.989950180E0,3.270000219E0
3.635435051E1,2.301000118E0,-8.989950180E0,3.270000219E0
3.637435051E1,2.301000118E0,-8.989950180E0,3.270000219E0
3.639435051E1,2.301000118E0,-8.989950180E0,3.270000219E0
3.641435051E1,2.301000118E0,-8.989950180E0,3.270000219E0
3.643435051E1,2.301000118E0,-8.989950180E0,3.270000219E0
3.645435051E1,2.301000118E0,-8.989950180E0,3.270000219E0
3.647435051E1,2.281949997E0,-7.132050514E0,-2.295000106E-2
3.649435051E1,2.281949997E0,-7.132050514E0,-2.295000106E-2
3.651435051E1,2.281949997E0,-7.132050514E0,-2.295000106E-2
3.653435051E1,2.281949997E0,-7.132050514E0,-2.295000106E-2
3.655435051E1,2.281949997E0,-7.132050514E0,-2.295000106E-2
3.657435051E1,-3.409500122E-1,-4.815000057E0,1.182000041E0
3.659435051E1,-3.409500122E-1,-4.815000057E0,1.182000041E0
3.661435051E1,1.993950129E0,-4.930050373E0,1.470000029E0
3.663435051E1,1.993950129E0,-4.930050373E0,1.470000029E0
3.665435051E1,1.993950129E0,-4.930050373E0,1.470000029E0
3.667435051E1,9.098999977E0,-1.021500015E1,-8.008049965E0
3.669435051E1,9.098999977E0,-1.021500015E1,-8.008049965E0
3.671435051E1,9.098999977E0,-1.021500015E1,-8.008049965E0
3.673435051E1,9.098999977E0,-1.021500015E1,-8.008049965E0
3.675435051E1,9.098999977E0,-1.021500015E1,-8.008049965E0
3.677435051E1,9.098999977E0,-1.021500015E1,-8.008049965E0
3.679435051E1,9.098999977E0,-1.021500015E1,-8.008049965E0
3.681435051E1,4.981950283E0,-1.304895020E1,1.872000098E0
3.683435051E1,4.981950283E0,-1.304895020E1,1.872000098E0
3.685435051E1,2.779950142E0,-1.251300049E1,3.672000170E0
3.685435051E1,2.779950142E0,-1.251300049E1,3.672000170E0
3.689435051E1,2.779950142E0,-1.251300049E1,3.672000170E0
3.691435051E1,-2.371050119E0,-7.936050415E0,-3.853050232E0
3.693435051E1,-2.371050119E0,-7.936050415E0,-3.853050232E0
3.695435051E1,-8.959500194E-1,-9.199950218E0,3.556950092E0
3.697435051E1,-8.959500194E-1,-9.199950218E0,3.556950092E0
3.699435051E1,-8.959500194E-1,-9.199950218E0,3.556950092E0
3.701435051E1,2.262000084E0,-9.258000374E0,5.185050011E0
3.703435051E1,2.262000084E0,-9.258000374E0,5.185050011E0
3.705435051E1,4.330950260E0,-9.832050323E0,2.025000095E0
3.707435051E1,4.330950260E0,-9.832050323E0,2.025000095E0
3.709435051E1,4.330950260E0,-9.832050323E0,2.025000095E0
3.711435051E1,4.330950260E0,-9.832050323E0,2.025000095E0
3.713435051E1,4.330950260E0,-9.832050323E0,2.025000095E0
3.715435051E1,3.124050140E0,-8.358000755E0,4.740000367E-1
3.717435051E1,3.124050140E0,-8.358000755E0,4.740000367E-1
3.719435051E1,3.411000252E0,-9.162000656E0,2.446050167E0
3.721435051E1,3.411000252E0,-9.162000656E0,2.446050167E0
3.723435051E1,3.411000252E0,-9.162000656E0,2.446050167E0
3.725435051E1,3.354000092E0,-8.913000107E0,2.005950212E0
3.727435051E1,3.354000092E0,-8.913000107E0,2.005950212E0
3.729435051E1,2.665050030E0,-8.473050117E0,9.139500260E-1
3.731435051E1,2.665050030E0,-8.473050117E0,9.139500260E-1
3.733435051E1,2.665050030E0,-8.473050117E0,9.139500260E-1
3.735435051E1,2.665050030E0,-8.473050117E0,9.139500260E-1
3.737435051E1,2.665050030E0,-8.473050117E0,9.139500260E-1
3.739435051E1,5.499000072E0,-1.119195080E1,1.564950109E0
3.741435051E1,5.499000072E0,-1.119195080E1,1.564950109E0
3.743435051E1,5.499000072E0,-1.119195080E1,1.564950109E0
3.745435051E1,5.499000072E0,-1.119195080E1,1.564950109E0
3.747435051E1,5.499000072E0,-1.119195080E1,1.564950109E0
3.749435051E1,6.360000134E0,-1.113405037E1,5.509500504E-1
3.751435051E1,6.360000134E0,-1.113405037E1,5.509500504E-1
3.753435051E1,9.136950493E0,-1.113405037E1,-3.373950243E0
3.755435051E1,9.136950493E0,-1.113405037E1,-3.373950243E0
3.757435051E1,9.136950493E0,-1.113405037E1,-3.373950243E0
3.759435051E1,9.136950493E0,-1.113405037E1,-3.373950243E0
3.761435051E1,9.136950493E0,-1.113405037E1,-3.373950243E0
3.763435051E1,9.799500704E-1,-1.086600018E1,5.662950039E0
3.765435051E1,9.799500704E-1,-1.086600018E1,5.662950039E0
3.767435051E1,9.799500704E-1,-1.086600018E1,5.662950039E0
3.769435051E1,9.799500704E-1,-1.086600018E1,5.662950039E0
3.771435051E1,9.799500704E-1,-1.086600018E1,5.662950039E0
3.773435051E1,2.569050074E0,-8.683050156E0,-2.914050102E0
3.775435051E1,2.569050074E0,-8.683050156E0,-2.914050102E0
3.777435051E1,2.569050074E0,-8.683050156E0,-2.914050102E0
3.779435051E1,2.569050074E0,-8.683050156E0,-2.914050102E0
3.781435051E1,2.569050074E0,-8.683050156E0,-2.914050102E0
3.783435051E1,2.569050074E0,-8.683050156E0,-2.914050102E0
3.785435051E1,2.569050074E0,-8.683050156E0,-2.914050102E0
3.787435051E1,2.569050074E0,-8.683050156E0,-2.914050102E0
3.789435051E1,2.569050074E0,-8.683050156E0,-2.914050102E0
3.791435051E1,-1.500000060E-2,-6.097950459E0,-5.590500236E-1
3.793435051E1,-1.500000060E-2,-6.097950459E0,-5.590500236E-1
3.795435051E1,-1.500000060E-2,-6.097950459E0,-5.590500236E-1
3.797435051E1,2.644950151E0,-5.562000275E0,-1.018950105E0
3.799435051E1,2.644950151E0,-5.562000275E0,-1.018950105E0
3.801435051E1,2.644950151E0,-5.562000275E0,-1.018950105E0
3.803435051E1,2.644950151E0,-5.562000275E0,-1.018950105E0
3.805435051E1,2.644950151E0,-5.562000275E0,-1.018950105E0
3.807435051E1,1.440300083E1,-1.326000023E1,-3.336000204E0
3.809435051E1,1.440300083E1,-1.326000023E1,-3.336000204E0
3.811435051E1,8.467050552E0,-6.768000126E0,-1.651050091E0
3.813435051E1,8.467050552E0,-6.768000126E0,-1.651050091E0
3.815435051E1,8.467050552E0,-6.768000126E0,-1.651050091E0
3.817435051E1,8.467050552E0,-6.768000126E0,-1.651050091E0
3.819435051E1,8.467050552E0,-6.768000126E0,-1.651050091E0
3.821435051E1,1.879950047E0,-1.174695015E1,2.440500110E-1
3.823435051E1,1.879950047E0,-1.174695015E1,2.440500110E-1
3.825435051E1,1.879950047E0,-1.174695015E1,2.440500110E-1
3.827435051E1,1.879950047E0,-1.174695015E1,2.440500110E-1
3.829435051E1,1.879950047E0,-1.174695015E1,2.440500110E-1
3.831435051E1,7.110000253E-1,-9.507000923E0,2.638050079E0
3.833435051E1,7.110000253E-1,-9.507000923E0,2.638050079E0
3.835435051E1,7.110000253E-1,-9.507000923E0,2.638050079E0
3.837435051E1,7.110000253E-1,-9.507000923E0,2.638050079E0
3.839435051E1,7.110000253E-1,-9.507000923E0,2.638050079E0
3.841435051E1,7.110000253E-1,-9.507000923E0,2.638050079E0
3.843435051E1,7.110000253E-1,-9.507000923E0,2.638050079E0
3.845435051E1,7.110000253E-1,-9.507000923E0,2.638050079E0
3.847435051E1,7.110000253E-1,-9.507000923E0,2.638050079E0
3.849435051E1,7.110000253E-1,-9.507000923E0,2.638050079E0
3.851435051E1,7.110000253E-1,-9.507000923E0,2.638050079E0
3.853435051E1,7.110000253E-1,-9.507000923E0,2.638050079E0
3.855435051E1,4.732950211E0,-9.199950218E0,2.350950003E0
3.857435051E1,4.732950211E0,-9.199950218E0,2.350950003E0
3.859435051E1,3.832950115E0,-8.701950073E0,7.230000496E-1
3.861435051E1,3.832950115E0,-8.701950073E0,7.230000496E-1
3.863435051E1,3.832950115E0,-8.701950073E0,7.230000496E-1
3.865435051E1,3.832950115E0,-8.701950073E0,7.230000496E-1
3.867435051E1,3.832950115E0,-8.701950073E0,7.230000496E-1
3.869435051E1,3.756000280E0,-9.946950912E0,9.529500604E-1
3.871435051E1,3.756000280E0,-9.946950912E0,9.529500604E-1
3.873435051E1,3.756000280E0,-9.946950912E0,9.529500604E-1
3.875435051E1,3.756000280E0,-9.946950912E0,9.529500604E-1
3.877435051E1,3.756000280E0,-9.946950912E0,9.529500604E-1
3.879435051E1,5.518050194E0,-9.870000839E0,2.197050095E0
3.881435051E1,5.518050194E0,-9.870000839E0,2.197050095E0
3.883435051E1,7.509000301E0,-1.191900063E1,-3.106050253E0
3.885435051E1,7.509000301E0,-1.191900063E1,-3.106050253E0
3.887435051E1,7.509000301E0,-1.191900063E1,-3.106050253E0
3.889435051E1,5.422050476E0,-1.220700073E1,-1.573950052E0
3.891435051E1,5.422050476E0,-1.220700073E1,-1.573950052E0
3.893435051E1,6.540000439E-1,-9.736050606E0,2.427000046E0
3.895435051E1,6.540000439E-1,-9.736050606E0,2.427000046E0
3.897435051E1,6.540000439E-1,-9.736050606E0,2.427000046E0
3.899435051E1,6.540000439E-1,-9.736050606E0,2.427000046E0
3.901435051E1,6.540000439E-1,-9.736050606E0,2.427000046E0
3.903435051E1,9.900000691E-2,-1.054095078E1,-2.953050137E0
3.905435051E1,9.900000691E-2,-1.054095078E1,-2.953050137E0
3.907435051E1,9.900000691E-2,-1.054095078E1,-2.953050137E0
3.909435051E1,9.900000691E-2,-1.054095078E1,-2.953050137E0
3.911435051E1,9.900000691E-2,-1.054095078E1,-2.953050137E0
3.913435051E1,1.477050066E0,-7.381050587E0,-1.726950049E0
3.915435051E1,1.477050066E0,-7.381050587E0,-1.726950049E0
3.917435051E1,1.132950068E0,-6.940950394E0,9.529500604E-1
3.919435051E1,1.132950068E0,-6.940950394E0,9.529500604E-1
3.921435051E1,1.132950068E0,-6.940950394E0,9.529500604E-1
3.923435051E1,1.132950068E0,-6.940950394E0,9.529500604E-1
3.925435051E1,1.132950068E0,-6.940950394E0,9.529500604E-1
3.927435051E1,2.109000206E0,-5.791950226E0,1.642050028E0
3.929435051E1,2.109000206E0,-5.791950226E0,1.642050028E0
3.931435051E1,2.109000206E0,-5.791950226E0,1.642050028E0
3.933435051E1,2.109000206E0,-5.791950226E0,1.642050028E0
3.935435051E1,2.109000206E0,-5.791950226E0,1.642050028E0
3.937435051E1,1.066905022E1,-1.103895092E1,-3.871950150E0
3.939435051E1,1.066905022E1,-1.103895092E1,-3.871950150E0
3.941435051E1,1.066905022E1,-1.103895092E1,-3.871950150E0
3.943435051E1,1.066905022E1,-1.103895092E1,-3.871950150E0
3.945435051E1,1.066905022E1,-1.103895092E1,-3.871950150E0
3.947435051E1,1.066905022E1,-1.103895092E1,-3.871950150E0
3.949435051E1,1.066905022E1,-1.103895092E1,-3.871950150E0
3.951435051E1,3.832950115E0,-1.247505093E1,1.162950039E0
3.953435051E1,3.832950115E0,-1.247505093E1,1.162950039E0
3.955435051E1,1.324050069E0,-1.377705097E1,1.099500060E-1
3.957435051E1,1.324050069E0,-1.377705097E1,1.099500060E-1
3.959435051E1,1.324050069E0,-1.377705097E1,1.099500060E-1
3.961435051E1,-2.389950037E0,-6.462000370E0,-3.202050209E0
3.963435051E1,-2.389950037E0,-6.462000370E0,-3.202050209E0
3.965435051E1,-5.400000140E-2,-8.224050522E0,2.560950041E0
3.967435051E1,-5.400000140E-2,-8.224050522E0,2.560950041E0
3.969435051E1,-5.400000140E-2,-8.224050522E0,2.560950041E0
3.971435051E1,-5.400000140E-2,-8.224050522E0,2.560950041E0
3.973435051E1,-5.400000140E-2,-8.224050522E0,2.560950041E0
3.975435051E1,-5.400000140E-2,-8.224050522E0,2.560950041E0
3.977435051E1,-5.400000140E-2,-8.224050522E0,2.560950041E0
3.979435051E1,-5.400000140E-2,-8.224050522E0,2.560950041E0
3.981435051E1,-5.400000140E-2,-8.224050522E0,2.560950041E0
3.983435051E1,-5.400000140E-2,-8.224050522E0,2.560950041E0
3.985435051E1,3.181950092E0,-8.607000351E0,1.813950062E0
3.987435051E1,3.181950092E0,-8.607000351E0,1.813950062E0
3.989435051E1,3.277050257E0,-9.142950058E0,2.887050152E0
3.991435051E1,3.277050257E0,-9.142950058E0,2.887050152E0
3.993435051E1,3.277050257E0,-9.142950058E0,2.887050152E0
3.995435051E1,3.487950087E0,-8.701950073E0,2.254950047E0
3.997435051E1,3.487950087E0,-8.701950073E0,2.254950047E0
3.999435051E1,4.369050026E0,-8.414999962E0,1.297050118E0
4.001435051E1,4.369050026E0,-8.414999962E0,1.297050118E0
4.003435051E1,4.369050026E0,-8.414999962E0,1.297050118E0
4.005435051E1,4.369050026E0,-8.414999962E0,1.297050118E0
4.007435051E1,4.369050026E0,-8.414999962E0,1.297050118E0
4.009435051E1,4.254000187E0,-1.015800095E1,1.642050028E0
4.011435051E1,4.254000187E0,-1.015800095E1,1.642050028E0
4.013435051E1,4.254000187E0,-1.015800095E1,1.642050028E0
4.015435051E1,4.254000187E0,-1.015800095E1,1.642050028E0
4.017435051E1,4.254000187E0,-1.015800095E1,1.642050028E0
4.019435051E1,5.863050461E0,-1.119195080E1,2.121000051E0
4.021435051E1,5.863050461E0,-1.119195080E1,2.121000051E0
4.023435051E1,6.552000523E0,-1.019595051E1,-8.046000481E0
4.025435051E1,6.552000523E0,-1.019595051E1,-8.046000481E0
4.027435051E1,6.552000523E0,-1.019595051E1,-8.046000481E0
4.029435051E1,6.552000523E0,-1.019595051E1,-8.046000481E0
4.031435051E1,6.552000523E0,-1.019595051E1,-8.046000481E0
4.033435051E1,1.180500090E-1,-1.193895054E1,3.691050291E0
4.035435051E1,1.180500090E-1,-1.193895054E1,3.691050291E0
4.037435051E1,1.750500053E-1,-1.632405090E1,-1.630950093E0
4.039435051E1,1.750500053E-1,-1.632405090E1,-1.630950093E0
4.041435051E1,1.750500053E-1,-1.632405090E1,-1.630950093E0
4.043435051E1,1.750500053E-1,-1.632405090E1,-1.630950093E0
4.045435051E1,1.750500053E-1,-1.632405090E1,-1.630950093E0
4.047435051E1,1.516050100E0,-6.481050491E0,-1.402050018E0
4.049435051E1,1.516050100E0,-6.481050491E0,-1.402050018E0
4.051435051E1,1.516050100E0,-6.481050491E0,-1.402050018E0
4.053435051E1,1.516050100E0,-6.481050491E0,-1.402050018E0
4.055435051E1,1.516050100E0,-6.481050491E0,-1.402050018E0
4.057435051E1,1.630950093E0,-6.979050159E0,7.800000310E-1
4.059435051E1,1.630950093E0,-6.979050159E0,7.800000310E-1
4.061435051E1,8.650500178E-1,-4.968000412E0,7.990500331E-1
4.063435051E1,8.650500178E-1,-4.968000412E0,7.990500331E-1
4.065435051E1,8.650500178E-1,-4.968000412E0,7.990500331E-1
4.067435051E1,2.473050117E0,-4.795950413E0,8.950500488E-1
4.069435051E1,2.473050117E0,-4.795950413E0,8.950500488E-1
4.071435051E1,4.867050171E0,-7.246950150E0,-3.100500107E-1
4.073435051E1,4.867050171E0,-7.246950150E0,-3.100500107E-1
4.075435051E1,4.867050171E0,-7.246950150E0,-3.100500107E-1
4.077435051E1,4.867050171E0,-7.246950150E0,-3.100500107E-1
4.079435051E1,4.867050171E0,-7.246950150E0,-3.100500107E-1
4.081435051E1,4.867050171E0,-7.246950150E0,-3.100500107E-1
4.083435051E1,4.867050171E0,-7.246950150E0,-3.100500107E-1
4.085435051E1,4.867050171E0,-7.246950150E0,-3.100500107E-1
4.087435051E1,4.867050171E0,-7.246950150E0,-3.100500107E-1
4.089435051E1,4.867050171E0,-7.246950150E0,-3.100500107E-1
4.091435051E1,5.389500260E-1,-1.327905083E1,1.182000041E0
4.093435051E1,5.389500260E-1,-1.327905083E1,1.182000041E0
4.095435051E1,-1.048950076E0,-7.362000465E0,3.691050291E0
4.097435051E1,-1.048950076E0,-7.362000465E0,3.691050291E0
4.099435051E1,-1.048950076E0,-7.362000465E0,3.691050291E0
4.101435051E1,-1.489950061E0,-8.587050438E0,2.331000090E0
4.103435051E1,-1.489950061E0,-8.587050438E0,2.331000090E0
4.105435051E1,4.095000029E-2,-9.966000557E0,2.311950207E0
4.107435051E1,4.095000029E-2,-9.966000557E0,2.311950207E0
4.109435051E1,4.095000029E-2,-9.966000557E0,2.311950207E0
4.111435051E1,4.095000029E-2,-9.966000557E0,2.311950207E0
4.113435051E1,4.095000029E-2,-9.966000557E0,2.311950207E0
4.115435051E1,2.320050001E0,-8.970000267E0,2.025000095E0
4.117435051E1,2.320050001E0,-8.970000267E0,2.025000095E0
4.119435051E1,2.320050001E0,-8.970000267E0,2.025000095E0
4.121435051E1,2.320050001E0,-8.970000267E0,2.025000095E0
4.123435051E1,2.320050001E0,-8.970000267E0,2.025000095E0
4.125435051E1,5.173050404E0,-9.105000496E0,1.852950096E0
4.127435051E1,5.173050404E0,-9.105000496E0,1.852950096E0
4.129435051E1,4.387950420E0,-8.511000633E0,3.019500077E-1
4.131435051E1,4.387950420E0,-8.511000633E0,3.019500077E-1
4.133435051E1,4.387950420E0,-8.511000633E0,3.019500077E-1
4.135435051E1,4.387950420E0,-8.511000633E0,3.019500077E-1
4.137435051E1,4.387950420E0,-8.511000633E0,3.019500077E-1
4.139435051E1,4.636950016E0,-1.031100082E1,1.987050056E0
4.141435051E1,4.636950016E0,-1.031100082E1,1.987050056E0
