"Time (s)","Gyroscope x (rad/s)","Gyroscope y (rad/s)","Gyroscope z (rad/s)"
9.752453000E-3,7.624375224E-1,1.186762452E0,-1.803999990E-1
4.232431200E-2,1.787499990E-3,2.199999988E-3,6.049999967E-3
5.832431400E-2,1.787499990E-3,2.199999988E-3,6.049999967E-3
7.435050900E-2,-6.810374856E-1,-8.680375218E-1,6.997374892E-1
9.435050900E-2,-6.810374856E-1,-8.680375218E-1,6.997374892E-1
1.143505090E-1,-6.810374856E-1,-8.680375218E-1,6.997374892E-1
1.343505090E-1,-6.810374856E-1,-8.680375218E-1,6.997374892E-1
1.543505090E-1,-6.810374856E-1,-8.680375218E-1,6.997374892E-1
1.743505090E-1,-6.810374856E-1,-8.680375218E-1,6.997374892E-1
1.943505090E-1,-6.311249733E-1,-2.663374841E-1,1.706375033E-1
2.143505090E-1,-6.311249733E-1,-2.663374841E-1,1.706375033E-1
2.343505090E-1,-6.311249733E-1,-2.663374841E-1,1.706375033E-1
2.543505090E-1,-6.311249733E-1,-2.663374841E-1,1.706375033E-1
2.743505090E-1,-6.311249733E-1,-2.663374841E-1,1.706375033E-1
2.943505090E-1,-9.044749737E-1,-8.304999769E-2,-1.937374920E-1
3.143505090E-1,-9.044749737E-1,-8.304999769E-2,-1.937374920E-1
3.343505090E-1,-8.816499710E-1,1.025749967E-1,-3.772999942E-1
3.543505090E-1,-8.816499710E-1,1.025749967E-1,-3.772999942E-1
3.743505090E-1,-8.816499710E-1,1.025749967E-1,-3.772999942E-1
3.943505090E-1,-9.435250163E-1,3.239499927E-1,-6.571124792E-1
4.143505090E-1,-9.435250163E-1,3.239499927E-1,-6.571124792E-1
4.343505090E-1,-9.435250163E-1,3.239499927E-1,-6.571124792E-1
4.543505090E-1,-9.435250163E-1,3.239499927E-1,-6.571124792E-1
4.743505090E-1,-9.435250163E-1,3.239499927E-1,-6.571124792E-1
4.943505090E-1,-9.435250163E-1,3.239499927E-1,-6.571124792E-1
5.143505090E-1,-9.435250163E-1,3.239499927E-1,-6.571124792E-1
5.343505090E-1,-1.086937547E0,3.025000095E-1,-8.937500119E-1
5.543505090E-1,-1.086937547E0,3.025000095E-1,-8.937500119E-1
5.743505090E-1,-1.086937547E0,3.025000095E-1,-8.937500119E-1
5.943505090E-1,-1.086937547E0,3.025000095E-1,-8.937500119E-1
6.143505090E-1,-1.086937547E0,3.025000095E-1,-8.937500119E-1
6.343505090E-1,-2.096600056E0,-6.763625145E-1,-7.673875093E-1
6.543505090E-1,-2.096600056E0,-6.763625145E-1,-7.673875093E-1
6.743505090E-1,-1.933387518E0,-1.382974982E0,-1.143999994E-1
6.943505090E-1,-1.933387518E0,-1.382974982E0,-1.143999994E-1
7.143505090E-1,-1.933387518E0,-1.382974982E0,-1.143999994E-1
7.343505090E-1,-1.933387518E0,-1.382974982E0,-1.143999994E-1
7.543505090E-1,-1.933387518E0,-1.382974982E0,-1.143999994E-1
7.743505090E-1,-7.176125050E-1,-2.538112402E0,7.028999925E-1
7.943505090E-1,-7.176125050E-1,-2.538112402E0,7.028999925E-1
8.143505090E-1,1.546874940E-1,-2.544849873E0,8.857749701E-1
8.343505090E-1,1.546874940E-1,-2.544849873E0,8.857749701E-1
8.543505090E-1,1.546874940E-1,-2.544849873E0,8.857749701E-1
8.743505090E-1,4.889499843E-1,-2.044075012E0,8.234875202E-1
8.943505090E-1,4.889499843E-1,-2.044075012E0,8.234875202E-1
9.143505090E-1,3.481499851E-1,-1.770725012E0,7.066124678E-1
9.343505090E-1,3.481499851E-1,-1.770725012E0,7.066124678E-1
9.543505090E-1,3.481499851E-1,-1.770725012E0,7.066124678E-1
9.743505090E-1,3.481499851E-1,-1.770725012E0,7.066124678E-1
9.943505090E-1,3.481499851E-1,-1.770725012E0,7.066124678E-1
1.014350509E0,-1.201749966E-1,-7.555624843E-1,4.697000086E-1
1.034350509E0,-1.201749966E-1,-7.555624843E-1,4.697000086E-1
1.054350509E0,-1.201749966E-1,-7.555624843E-1,4.697000086E-1
1.074350509E0,-1.201749966E-1,-7.555624843E-1,4.697000086E-1
1.094350509E0,-1.201749966E-1,-7.555624843E-1,4.697000086E-1
1.114350509E0,-7.939249873E-1,1.315875053E-1,9.652499855E-2
1.134350509E0,-7.939249873E-1,1.315875053E-1,9.652499855E-2
1.154350509E0,-9.216625094E-1,4.844124913E-1,-7.383749634E-2
1.174350509E0,-9.216625094E-1,4.844124913E-1,-7.383749634E-2
1.194350509E0,-9.216625094E-1,4.844124913E-1,-7.383749634E-2
1.214350509E0,-9.216625094E-1,4.844124913E-1,-7.383749634E-2
1.234350509E0,-9.216625094E-1,4.844124913E-1,-7.383749634E-2
1.254350509E0,-9.635999799E-1,6.029375196E-1,-2.782999873E-1
1.274350509E0,-9.635999799E-1,6.029375196E-1,-2.782999873E-1
1.294350509E0,-9.635999799E-1,6.029375196E-1,-2.782999873E-1
1.314350509E0,-9.635999799E-1,6.029375196E-1,-2.782999873E-1
1.334350509E0,-9.635999799E-1,6.029375196E-1,-2.782999873E-1
1.354350509E0,-5.858874917E-1,7.298499942E-1,-3.367374837E-1
1.374350509E0,-5.858874917E-1,7.298499942E-1,-3.367374837E-1
1.394350509E0,-4.237749875E-1,5.798375010E-1,-3.583250046E-1
1.414350509E0,-4.237749875E-1,5.798375010E-1,-3.583250046E-1
1.434350509E0,-4.237749875E-1,5.798375010E-1,-3.583250046E-1
1.454350509E0,-1.971749961E-1,5.313000083E-1,-3.588750064E-1
1.474350509E0,-1.971749961E-1,5.313000083E-1,-3.588750064E-1
1.494350509E0,-1.413500011E-1,5.099874735E-1,-3.409999907E-1
1.514350509E0,-1.413500011E-1,5.099874735E-1,-3.409999907E-1
1.534350509E0,-1.280124933E-1,4.651624858E-1,-3.390749991E-1
1.554350509E0,-1.280124933E-1,4.651624858E-1,-3.390749991E-1
1.574350509E0,-1.280124933E-1,4.651624858E-1,-3.390749991E-1
1.594350509E0,-1.791625023E-1,4.070000052E-1,-2.886124849E-1
1.614350509E0,-1.791625023E-1,4.070000052E-1,-2.886124849E-1
1.634350509E0,-1.791625023E-1,4.070000052E-1,-2.886124849E-1
1.654350509E0,-1.791625023E-1,4.070000052E-1,-2.886124849E-1
1.674350509E0,-1.791625023E-1,4.070000052E-1,-2.886124849E-1
1.694350509E0,-2.428250015E-1,1.003749967E-1,-2.118874937E-1
1.714350509E0,-2.428250015E-1,1.003749967E-1,-2.118874937E-1
1.734350509E0,-2.231625021E-1,1.388750039E-2,-1.710499972E-1
1.754350509E0,-2.231625021E-1,1.388750039E-2,-1.710499972E-1
1.774350509E0,-2.231625021E-1,1.388750039E-2,-1.710499972E-1
1.794350509E0,-2.231625021E-1,1.388750039E-2,-1.710499972E-1
1.814350509E0,-2.231625021E-1,1.388750039E-2,-1.710499972E-1
1.834350509E0,-1.993750036E-2,-9.432499856E-2,-1.333750039E-1
1.854350509E0,-1.993750036E-2,-9.432499856E-2,-1.333750039E-1
1.874350509E0,-1.993750036E-2,-9.432499856E-2,-1.333750039E-1
1.894350509E0,-1.993750036E-2,-9.432499856E-2,-1.333750039E-1
1.914350509E0,-1.993750036E-2,-9.432499856E-2,-1.333750039E-1
1.934350509E0,2.444749922E-1,-1.751749963E-1,-9.831249714E-2
1.954350509E0,2.444749922E-1,-1.751749963E-1,-9.831249714E-2
1.974350509E0,3.778499961E-1,-3.482874930E-1,-6.778749824E-2
1.994350509E0,3.778499961E-1,-3.482874930E-1,-6.778749824E-2
2.014350509E0,3.778499961E-1,-3.482874930E-1,-6.778749824E-2
2.034350509E0,3.778499961E-1,-3.482874930E-1,-6.778749824E-2
2.054350509E0,3.778499961E-1,-3.482874930E-1,-6.778749824E-2
2.074350509E0,3.995749950E-1,-5.483499765E-1,6.338749826E-2
2.094350509E0,3.995749950E-1,-5.483499765E-1,6.338749826E-2
2.114350509E0,3.995749950E-1,-5.483499765E-1,6.338749826E-2
2.134350509E0,3.995749950E-1,-5.483499765E-1,6.338749826E-2
2.154350509E0,3.995749950E-1,-5.483499765E-1,6.338749826E-2
2.174350509E0,1.786125004E-1,-4.479750097E-1,1.278750002E-1
2.194350509E0,1.786125004E-1,-4.479750097E-1,1.278750002E-1
2.214350509E0,1.955250055E-1,-3.084124923E-1,1.054624990E-1
2.234350509E0,1.955250055E-1,-3.084124923E-1,1.054624990E-1
2.254350509E0,1.955250055E-1,-3.084124923E-1,1.054624990E-1
2.274350509E0,1.955250055E-1,-3.084124923E-1,1.054624990E-1
2.294350509E0,1.955250055E-1,-3.084124923E-1,1.054624990E-1
2.314350509E0,4.837250113E-1,-2.616625130E-1,-6.421250105E-2
2.334350509E0,4.837250113E-1,-2.616625130E-1,-6.421250105E-2
2.354350509E0,4.837250113E-1,-2.616625130E-1,-6.421250105E-2
2.374350509E0,4.837250113E-1,-2.616625130E-1,-6.421250105E-2
2.394350509E0,4.837250113E-1,-2.616625130E-1,-6.421250105E-2
2.414350509E0,5.807999969E-1,-2.373249978E-1,-2.382874936E-1
2.434350509E0,5.807999969E-1,-2.373249978E-1,-2.382874936E-1
2.454350509E0,5.807999969E-1,-2.373249978E-1,-2.382874936E-1
2.474350509E0,5.807999969E-1,-2.373249978E-1,-2.382874936E-1
2.494350509E0,5.807999969E-1,-2.373249978E-1,-2.382874936E-1
2.514350509E0,5.660874844E-1,-2.079000026E-1,-2.546499968E-1
2.534350509E0,5.660874844E-1,-2.079000026E-1,-2.546499968E-1
2.554350509E0,5.589374900E-1,-1.112374961E-1,-2.315499932E-1
2.574350509E0,5.589374900E-1,-1.112374961E-1,-2.315499932E-1
2.594350509E0,5.475249887E-1,1.209999993E-2,-1.590874940E-1
2.614350509E0,5.475249887E-1,1.209999993E-2,-1.590874940E-1
2.634350509E0,5.475249887E-1,1.209999993E-2,-1.590874940E-1
2.654350509E0,5.475249887E-1,1.209999993E-2,-1.590874940E-1
2.674350509E0,5.475249887E-1,1.209999993E-2,-1.590874940E-1
2.694350509E0,5.475249887E-1,1.209999993E-2,-1.590874940E-1
2.714350509E0,5.475249887E-1,1.209999993E-2,-1.590874940E-1
2.734350509E0,5.475249887E-1,1.209999993E-2,-1.590874940E-1
2.754350509E0,6.623374820E-1,-1.343237519E0,2.827000022E-1
2.774350509E0,6.623374820E-1,-1.343237519E0,2.827000022E-1
2.794350509E0,8.610249758E-1,-1.292912483E0,2.968625128E-1
2.814350509E0,8.610249758E-1,-1.292912483E0,2.968625128E-1
2.834350509E0,8.610249758E-1,-1.292912483E0,2.968625128E-1
2.854350509E0,8.610249758E-1,-1.292912483E0,2.968625128E-1
2.874350509E0,8.610249758E-1,-1.292912483E0,2.968625128E-1
2.894350509E0,1.094912529E0,-1.432474971E0,3.359124959E-1
2.914350509E0,1.094912529E0,-1.432474971E0,3.359124959E-1
2.934350509E0,1.090374947E0,-9.383000135E-1,2.184875011E-1
2.954350509E0,1.090374947E0,-9.383000135E-1,2.184875011E-1
2.974350509E0,1.090374947E0,-9.383000135E-1,2.184875011E-1
2.994350509E0,9.933000207E-1,-2.996124923E-1,1.007874981E-1
3.014350509E0,9.933000207E-1,-2.996124923E-1,1.007874981E-1
3.034350509E0,9.933000207E-1,-2.996124923E-1,1.007874981E-1
3.054350509E0,9.933000207E-1,-2.996124923E-1,1.007874981E-1
3.074350509E0,9.933000207E-1,-2.996124923E-1,1.007874981E-1
3.094350509E0,9.933000207E-1,-2.996124923E-1,1.007874981E-1
3.114350509E0,9.933000207E-1,-2.996124923E-1,1.007874981E-1
3.134350509E0,1.051599979E0,-4.354625046E-1,9.638749808E-2
3.154350509E0,1.051599979E0,-4.354625046E-1,9.638749808E-2
3.174350509E0,1.051599979E0,-4.354625046E-1,9.638749808E-2
3.194350509E0,1.051599979E0,-4.354625046E-1,9.638749808E-2
3.214350509E0,1.051599979E0,-4.354625046E-1,9.638749808E-2
3.234350509E0,5.550875068E-1,-1.845249981E-1,2.692250013E-1
3.254350509E0,5.550875068E-1,-1.845249981E-1,2.692250013E-1
3.274350509E0,3.121249974E-1,-2.227500081E-2,3.378374875E-1
3.294350509E0,3.121249974E-1,-2.227500081E-2,3.378374875E-1
3.314350509E0,3.121249974E-1,-2.227500081E-2,3.378374875E-1
3.334350509E0,3.121249974E-1,-2.227500081E-2,3.378374875E-1
3.354350509E0,3.121249974E-1,-2.227500081E-2,3.378374875E-1
3.374350509E0,3.121249974E-1,-2.227500081E-2,3.378374875E-1
3.394350509E0,3.121249974E-1,-2.227500081E-2,3.378374875E-1
3.414350509E0,3.121249974E-1,-2.227500081E-2,3.378374875E-1
3.434350509E0,3.121249974E-1,-2.227500081E-2,3.378374875E-1
3.454350509E0,3.121249974E-1,-2.227500081E-2,3.378374875E-1
3.474350509E0,3.121249974E-1,-2.227500081E-2,3.378374875E-1
3.494350509E0,3.121249974E-1,-2.227500081E-2,3.378374875E-1
3.514350509E0,3.121249974E-1,-2.227500081E-2,3.378374875E-1
3.534350509E0,3.121249974E-1,-2.227500081E-2,3.378374875E-1
3.554350509E0,3.121249974E-1,-2.227500081E-2,3.378374875E-1
3.574350509E0,-3.104749918E-1,-3.764750063E-1,3.641000092E-1
3.594350509E0,-3.104749918E-1,-3.764750063E-1,3.641000092E-1
3.614350509E0,-3.844499886E-1,-3.040125072E-1,5.721374750E-1
3.634350509E0,-3.844499886E-1,-3.040125072E-1,5.721374750E-1
3.654350509E0,-3.844499886E-1,-3.040125072E-1,5.721374750E-1
3.674350509E0,-3.844499886E-1,-3.040125072E-1,5.721374750E-1
3.694350509E0,-3.844499886E-1,-3.040125072E-1,5.721374750E-1
3.714350509E0,-6.366249919E-2,-3.316499889E-1,8.225250244E-1
3.734350509E0,-6.366249919E-2,-3.316499889E-1,8.225250244E-1
3.754350509E0,-6.366249919E-2,-3.316499889E-1,8.225250244E-1
3.774350509E0,-6.366249919E-2,-3.316499889E-1,8.225250244E-1
3.794350509E0,-6.366249919E-2,-3.316499889E-1,8.225250244E-1
3.814350509E0,4.189625084E-1,-3.984749913E-1,8.923749924E-1
3.834350509E0,4.189625084E-1,-3.984749913E-1,8.923749924E-1
3.854350509E0,5.460125208E-1,-6.440500021E-1,7.603750229E-1
3.874350509E0,5.460125208E-1,-6.440500021E-1,7.603750229E-1
3.894350509E0,5.460125208E-1,-6.440500021E-1,7.603750229E-1
3.914350509E0,5.460125208E-1,-6.440500021E-1,7.603750229E-1
3.934350509E0,5.460125208E-1,-6.440500021E-1,7.603750229E-1
3.954350509E0,2.216500044E-1,-1.607374996E-1,8.541499972E-1
3.974350509E0,2.216500044E-1,-1.607374996E-1,8.541499972E-1
3.994350509E0,2.216500044E-1,-1.607374996E-1,8.541499972E-1
4.014350509E0,2.216500044E-1,-1.607374996E-1,8.541499972E-1
4.034350509E0,2.216500044E-1,-1.607374996E-1,8.541499972E-1
4.054350509E0,-3.944875002E-1,9.088749886E-1,1.196249962E0
4.074350509E0,-3.944875002E-1,9.088749886E-1,1.196249962E0
4.094350509E0,-2.791250050E-1,1.207800031E0,8.949875236E-1
4.114350509E0,-2.791250050E-1,1.207800031E0,8.949875236E-1
4.134350509E0,-2.791250050E-1,1.207800031E0,8.949875236E-1
4.154350509E0,-2.791250050E-1,1.207800031E0,8.949875236E-1
4.174350509E0,-2.791250050E-1,1.207800031E0,8.949875236E-1
4.194350509E0,1.443750039E-2,7.042750120E-1,4.521000087E-1
4.214350509E0,1.443750039E-2,7.042750120E-1,4.521000087E-1
4.234350509E0,8.635000139E-2,3.213374913E-1,6.391000152E-1
4.254350509E0,8.635000139E-2,3.213374913E-1,6.391000152E-1
4.274350509E0,8.635000139E-2,3.213374913E-1,6.391000152E-1
4.294350509E0,4.588375092E-1,-7.328750193E-2,3.324750066E-1
4.314350509E0,4.588375092E-1,-7.328750193E-2,3.324750066E-1
4.334350509E0,4.588375092E-1,-7.328750193E-2,3.324750066E-1
4.354350509E0,4.588375092E-1,-7.328750193E-2,3.324750066E-1
4.374350509E0,4.588375092E-1,-7.328750193E-2,3.324750066E-1
4.394350509E0,4.588375092E-1,-7.328750193E-2,3.324750066E-1
4.414350509E0,4.588375092E-1,-7.328750193E-2,3.324750066E-1
4.434350509E0,4.588375092E-1,-7.328750193E-2,3.324750066E-1
4.454350509E0,4.588375092E-1,-7.328750193E-2,3.324750066E-1
4.474350509E0,4.588375092E-1,-7.328750193E-2,3.324750066E-1
4.494350509E0,4.588375092E-1,-7.328750193E-2,3.324750066E-1
4.514350509E0,4.588375092E-1,-7.328750193E-2,3.324750066E-1
4.534350509E0,-5.685625076E-1,1.006499976E-1,8.751875162E-1
4.554350509E0,-5.685625076E-1,1.006499976E-1,8.751875162E-1
4.574350509E0,-5.685625076E-1,1.006499976E-1,8.751875162E-1
4.594350509E0,-5.685625076E-1,1.006499976E-1,8.751875162E-1
4.614350509E0,-5.685625076E-1,1.006499976E-1,8.751875162E-1
4.634350509E0,-4.941749871E-1,6.270000339E-2,3.515875041E-1
4.654350509E0,-4.941749871E-1,6.270000339E-2,3.515875041E-1
4.674350509E0,-3.750999868E-1,2.634499967E-1,2.795374990E-1
4.694350509E0,-3.750999868E-1,2.634499967E-1,2.795374990E-1
4.714350509E0,-3.750999868E-1,2.634499967E-1,2.795374990E-1
4.734350509E0,-3.750999868E-1,2.634499967E-1,2.795374990E-1
4.754350509E0,-3.750999868E-1,2.634499967E-1,2.795374990E-1
4.774350509E0,-5.541250110E-2,1.949750036E-1,-1.636249945E-2
4.794350509E0,-5.541250110E-2,1.949750036E-1,-1.636249945E-2
4.814350509E0,-5.541250110E-2,1.949750036E-1,-1.636249945E-2
4.834350509E0,-5.541250110E-2,1.949750036E-1,-1.636249945E-2
4.854350509E0,-5.541250110E-2,1.949750036E-1,-1.636249945E-2
4.874350509E0,-7.356250286E-2,-1.031249985E-1,7.452499866E-2
4.894350509E0,-7.356250286E-2,-1.031249985E-1,7.452499866E-2
4.914350509E0,-6.407500058E-2,-1.710499972E-1,3.822499886E-2
4.934350509E0,-6.407500058E-2,-1.710499972E-1,3.822499886E-2
4.954350509E0,-6.407500058E-2,-1.710499972E-1,3.822499886E-2
4.974350509E0,-6.407500058E-2,-1.710499972E-1,3.822499886E-2
4.994350509E0,-6.407500058E-2,-1.710499972E-1,3.822499886E-2
5.014350509E0,9.432499856E-2,-2.648249865E-1,-1.473999918E-1
5.034350509E0,9.432499856E-2,-2.648249865E-1,-1.473999918E-1
5.054350509E0,9.432499856E-2,-2.648249865E-1,-1.473999918E-1
5.074350509E0,9.432499856E-2,-2.648249865E-1,-1.473999918E-1
5.094350509E0,9.432499856E-2,-2.648249865E-1,-1.473999918E-1
5.114350509E0,-4.262499977E-3,-2.568500042E-1,3.107500076E-2
5.134350509E0,-4.262499977E-3,-2.568500042E-1,3.107500076E-2
5.154350509E0,-1.032624990E-1,-2.745875120E-1,1.552374959E-1
5.174350509E0,-1.032624990E-1,-2.745875120E-1,1.552374959E-1
5.194350509E0,-1.032624990E-1,-2.745875120E-1,1.552374959E-1
5.214350509E0,-1.032624990E-1,-2.745875120E-1,1.552374959E-1
5.234350509E0,-1.032624990E-1,-2.745875120E-1,1.552374959E-1
5.254350509E0,-4.357374907E-1,2.213750035E-1,8.098750114E-1
5.274350509E0,-4.357374907E-1,2.213750035E-1,8.098750114E-1
5.294350509E0,-4.357374907E-1,2.213750035E-1,8.098750114E-1
5.314350509E0,-4.357374907E-1,2.213750035E-1,8.098750114E-1
5.334350509E0,-4.357374907E-1,2.213750035E-1,8.098750114E-1
5.354350509E0,-4.347749949E-1,6.393750012E-2,6.910749674E-1
5.374350509E0,-4.347749949E-1,6.393750012E-2,6.910749674E-1
5.394350509E0,-4.347749949E-1,6.393750012E-2,6.910749674E-1
5.414350509E0,-4.347749949E-1,6.393750012E-2,6.910749674E-1
5.434350509E0,-4.347749949E-1,6.393750012E-2,6.910749674E-1
5.454350509E0,-4.347749949E-1,6.393750012E-2,6.910749674E-1
5.474350509E0,-4.347749949E-1,6.393750012E-2,6.910749674E-1
5.494350509E0,-2.261874974E-1,-6.294749975E-1,6.634374857E-1
5.514350509E0,-2.261874974E-1,-6.294749975E-1,6.634374857E-1
5.534350509E0,-2.261874974E-1,-6.294749975E-1,6.634374857E-1
5.554350509E0,-2.261874974E-1,-6.294749975E-1,6.634374857E-1
5.574350509E0,-2.261874974E-1,-6.294749975E-1,6.634374857E-1
5.594350509E0,-2.732124925E-1,-8.736749887E-1,9.211124778E-1
5.614350509E0,-2.732124925E-1,-8.736749887E-1,9.211124778E-1
5.634350509E0,-2.450249940E-1,-9.022749662E-1,8.915500045E-1
5.654350509E0,-2.450249940E-1,-9.022749662E-1,8.915500045E-1
5.674350509E0,-2.450249940E-1,-9.022749662E-1,8.915500045E-1
5.694350509E0,-1.039500013E-1,-9.447624683E-1,4.450874925E-1
5.714350509E0,-1.039500013E-1,-9.447624683E-1,4.450874925E-1
5.734350509E0,2.968625128E-1,-7.636749744E-1,-2.282499894E-2
5.754350509E0,2.968625128E-1,-7.636749744E-1,-2.282499894E-2
5.774350509E0,2.968625128E-1,-7.636749744E-1,-2.282499894E-2
5.794350509E0,2.968625128E-1,-7.636749744E-1,-2.282499894E-2
5.814350509E0,2.968625128E-1,-7.636749744E-1,-2.282499894E-2
5.834350509E0,4.563624859E-1,-6.572499871E-1,1.357125044E-1
5.854350509E0,4.563624859E-1,-6.572499871E-1,1.357125044E-1
5.874350509E0,4.563624859E-1,-6.572499871E-1,1.357125044E-1
5.894350509E0,4.563624859E-1,-6.572499871E-1,1.357125044E-1
5.914350509E0,4.563624859E-1,-6.572499871E-1,1.357125044E-1
5.934350509E0,2.338874936E-1,-1.087900043E0,2.358125001E-1
5.954350509E0,2.338874936E-1,-1.087900043E0,2.358125001E-1
5.974350509E0,9.019999951E-2,-1.318762541E0,1.079374999E-1
5.994350509E0,9.019999951E-2,-1.318762541E0,1.079374999E-1
6.014350509E0,9.019999951E-2,-1.318762541E0,1.079374999E-1
6.034350509E0,9.019999951E-2,-1.318762541E0,1.079374999E-1
6.054350509E0,9.019999951E-2,-1.318762541E0,1.079374999E-1
6.074350509E0,4.481124878E-1,-7.973625064E-1,-4.109874964E-1
6.094350509E0,4.481124878E-1,-7.973625064E-1,-4.109874964E-1
6.114350509E0,4.481124878E-1,-7.973625064E-1,-4.109874964E-1
6.134350509E0,4.481124878E-1,-7.973625064E-1,-4.109874964E-1
6.154350509E0,4.481124878E-1,-7.973625064E-1,-4.109874964E-1
6.174350509E0,6.223250031E-1,-6.723749638E-2,-3.194124997E-1
6.194350509E0,6.223250031E-1,-6.723749638E-2,-3.194124997E-1
6.214350509E0,4.287250042E-1,-1.243000031E-1,-2.000624985E-1
6.234350509E0,4.287250042E-1,-1.243000031E-1,-2.000624985E-1
6.254350509E0,4.287250042E-1,-1.243000031E-1,-2.000624985E-1
6.274350509E0,4.287250042E-1,-1.243000031E-1,-2.000624985E-1
6.294350509E0,4.287250042E-1,-1.243000031E-1,-2.000624985E-1
6.314350509E0,2.677125037E-1,-6.062374711E-1,-5.028374791E-1
6.334350509E0,2.677125037E-1,-6.062374711E-1,-5.028374791E-1
6.354350509E0,2.677125037E-1,-6.062374711E-1,-5.028374791E-1
6.374350509E0,2.677125037E-1,-6.062374711E-1,-5.028374791E-1
6.394350509E0,2.677125037E-1,-6.062374711E-1,-5.028374791E-1
6.414350509E0,3.332999945E-1,-9.345874786E-1,-2.778874934E-1
6.434350509E0,3.332999945E-1,-9.345874786E-1,-2.778874934E-1
6.454350509E0,3.332999945E-1,-9.345874786E-1,-2.778874934E-1
6.474350509E0,3.332999945E-1,-9.345874786E-1,-2.778874934E-1
6.494350509E0,3.332999945E-1,-9.345874786E-1,-2.778874934E-1
6.514350509E0,3.332999945E-1,-9.345874786E-1,-2.778874934E-1
6.534350509E0,3.332999945E-1,-9.345874786E-1,-2.778874934E-1
6.554350509E0,2.475000024E-1,-1.803312540E0,1.512499992E-3
6.574350509E0,2.475000024E-1,-1.803312540E0,1.512499992E-3
6.594350509E0,2.475000024E-1,-1.803312540E0,1.512499992E-3
6.614350509E0,2.475000024E-1,-1.803312540E0,1.512499992E-3
6.634350509E0,2.475000024E-1,-1.803312540E0,1.512499992E-3
6.654350509E0,3.473249972E-1,-1.470149994E0,-6.619250178E-1
6.674350509E0,3.473249972E-1,-1.470149994E0,-6.619250178E-1
6.694350509E0,3.429250121E-1,-1.249462485E0,-6.154500246E-1
6.714350509E0,3.429250121E-1,-1.249462485E0,-6.154500246E-1
6.734350509E0,3.429250121E-1,-1.249462485E0,-6.154500246E-1
6.754350509E0,3.708375096E-1,-9.051625133E-1,-3.983374834E-1
6.774350509E0,3.708375096E-1,-9.051625133E-1,-3.983374834E-1
6.794350509E0,3.778499961E-1,-5.612750053E-1,-3.287625015E-1
6.814350509E0,3.778499961E-1,-5.612750053E-1,-3.287625015E-1
6.834350509E0,3.778499961E-1,-5.612750053E-1,-3.287625015E-1
6.854350509E0,3.778499961E-1,-5.612750053E-1,-3.287625015E-1
6.874350509E0,3.778499961E-1,-5.612750053E-1,-3.287625015E-1
6.894350509E0,-3.634124994E-1,-1.225399971E0,-1.119249985E-1
6.914350509E0,-3.634124994E-1,-1.225399971E0,-1.119249985E-1
6.934350509E0,-3.634124994E-1,-1.225399971E0,-1.119249985E-1
6.954350509E0,-3.634124994E-1,-1.225399971E0,-1.119249985E-1
6.974350509E0,-3.634124994E-1,-1.225399971E0,-1.119249985E-1
6.994350509E0,1.788875014E-1,-4.104374945E-1,1.201749966E-1
7.014350509E0,1.788875014E-1,-4.104374945E-1,1.201749966E-1
7.034350509E0,4.643374979E-1,-2.479124963E-1,2.567124963E-1
7.054350509E0,4.643374979E-1,-2.479124963E-1,2.567124963E-1
7.074350509E0,4.643374979E-1,-2.479124963E-1,2.567124963E-1
7.094350509E0,4.643374979E-1,-2.479124963E-1,2.567124963E-1
7.114350509E0,4.643374979E-1,-2.479124963E-1,2.567124963E-1
7.134350509E0,7.834749818E-1,-3.984749913E-1,4.505875111E-1
7.154350509E0,7.834749818E-1,-3.984749913E-1,4.505875111E-1
7.174350509E0,6.923124790E-1,-1.376099944E0,5.545374751E-1
7.194350509E0,6.923124790E-1,-1.376099944E0,5.545374751E-1
7.214350509E0,6.923124790E-1,-1.376099944E0,5.545374751E-1
7.234350509E0,5.010499954E-1,-3.240599871E0,9.634624720E-1
7.254350509E0,5.010499954E-1,-3.240599871E0,9.634624720E-1
7.274350509E0,-1.924999990E-2,-4.865712643E0,1.264724970E0
7.294350509E0,-1.924999990E-2,-4.865712643E0,1.264724970E0
7.314350509E0,-1.924999990E-2,-4.865712643E0,1.264724970E0
7.334350509E0,-1.924999990E-2,-4.865712643E0,1.264724970E0
7.354350509E0,-1.924999990E-2,-4.865712643E0,1.264724970E0
7.374350509E0,-2.862749994E-1,-3.850275040E0,5.559124947E-1
7.394350509E0,-2.862749994E-1,-3.850275040E0,5.559124947E-1
7.414350509E0,-2.862749994E-1,-3.850275040E0,5.559124947E-1
7.434350509E0,-2.862749994E-1,-3.850275040E0,5.559124947E-1
7.454350509E0,-2.862749994E-1,-3.850275040E0,5.559124947E-1
7.474350509E0,-1.633774996E0,1.179199934E0,-2.499199867E0
7.494350509E0,-1.633774996E0,1.179199934E0,-2.499199867E0
7.514350509E0,-1.572587490E0,2.029500008E0,-2.622674942E0
7.534350509E0,-1.572587490E0,2.029500008E0,-2.622674942E0
7.554350509E0,-1.572587490E0,2.029500008E0,-2.622674942E0
7.574350509E0,-1.572587490E0,2.029500008E0,-2.622674942E0
7.594350509E0,-1.572587490E0,2.029500008E0,-2.622674942E0
7.614350509E0,1.141662478E0,9.253749996E-2,3.005749881E-1
7.634350509E0,1.141662478E0,9.253749996E-2,3.005749881E-1
7.654350509E0,1.141662478E0,9.253749996E-2,3.005749881E-1
7.674350509E0,1.141662478E0,9.253749996E-2,3.005749881E-1
7.694350509E0,1.141662478E0,9.253749996E-2,3.005749881E-1
7.714350509E0,3.142287493E0,-2.760725021E0,2.616899967E0
7.734350509E0,3.142287493E0,-2.760725021E0,2.616899967E0
7.754350509E0,2.490124941E0,-3.386625051E0,3.035312414E0
7.774350509E0,2.490124941E0,-3.386625051E0,3.035312414E0
7.794350509E0,2.490124941E0,-3.386625051E0,3.035312414E0
7.814350509E0,1.786399961E0,-1.784887433E0,1.767150044E0
7.834350509E0,1.786399961E0,-1.784887433E0,1.767150044E0
7.854350509E0,4.335374832E-1,7.785249949E-1,-1.838375032E-1
7.874350509E0,4.335374832E-1,7.785249949E-1,-1.838375032E-1
7.894350509E0,4.335374832E-1,7.785249949E-1,-1.838375032E-1
7.914350509E0,4.335374832E-1,7.785249949E-1,-1.838375032E-1
7.934350509E0,4.335374832E-1,7.785249949E-1,-1.838375032E-1
7.954350509E0,-7.507500052E-1,2.207012415E0,-1.648625016E0
7.974350509E0,-7.507500052E-1,2.207012415E0,-1.648625016E0
7.994350509E0,-8.790374994E-1,1.746937513E0,-1.443612456E0
8.014350509E0,-8.790374994E-1,1.746937513E0,-1.443612456E0
8.034350509E0,-8.790374994E-1,1.746937513E0,-1.443612456E0
8.054350509E0,-8.028625250E-1,1.136987448E0,-1.001137495E0
8.074350509E0,-8.028625250E-1,1.136987448E0,-1.001137495E0
8.094350509E0,-5.300624967E-1,7.254499793E-1,-5.868499875E-1
8.114350509E0,-5.300624967E-1,7.254499793E-1,-5.868499875E-1
8.134350509E0,-5.300624967E-1,7.254499793E-1,-5.868499875E-1
8.154350509E0,-5.300624967E-1,7.254499793E-1,-5.868499875E-1
8.174350509E0,-5.300624967E-1,7.254499793E-1,-5.868499875E-1
8.194350509E0,-1.205187440E0,-2.667500079E-1,-5.843750015E-2
8.214350509E0,-1.205187440E0,-2.667500079E-1,-5.843750015E-2
8.234350509E0,-9.182249904E-1,2.055625021E-1,-3.951750100E-1
8.254350509E0,-9.182249904E-1,2.055625021E-1,-3.951750100E-1
8.274350509E0,-9.182249904E-1,2.055625021E-1,-3.951750100E-1
8.294350509E0,-5.623750016E-2,8.793125153E-1,-5.699374676E-1
8.314350509E0,-5.623750016E-2,8.793125153E-1,-5.699374676E-1
8.334350509E0,1.244374961E-1,5.879499912E-1,4.771250114E-2
8.354350509E0,1.244374961E-1,5.879499912E-1,4.771250114E-2
8.374350509E0,5.139750242E-1,4.138749838E-2,6.474875212E-1
8.394350509E0,5.139750242E-1,4.138749838E-2,6.474875212E-1
8.414350509E0,5.139750242E-1,4.138749838E-2,6.474875212E-1
8.434350509E0,5.139750242E-1,4.138749838E-2,6.474875212E-1
8.454350509E0,5.139750242E-1,4.138749838E-2,6.474875212E-1
8.474350509E0,5.139750242E-1,4.138749838E-2,6.474875212E-1
8.494350509E0,5.139750242E-1,4.138749838E-2,6.474875212E-1
8.514350509E0,5.139750242E-1,4.138749838E-2,6.474875212E-1
8.534350509E0,7.425000072E-1,-1.785712481E0,1.322749972E0
8.554350509E0,7.425000072E-1,-1.785712481E0,1.322749972E0
8.574350509E0,3.301374912E-1,-1.877974987E0,1.111137509E0
8.594350509E0,3.301374912E-1,-1.877974987E0,1.111137509E0
8.614350509E0,3.301374912E-1,-1.877974987E0,1.111137509E0
8.634350509E0,3.301374912E-1,-1.877974987E0,1.111137509E0
8.654350509E0,3.301374912E-1,-1.877974987E0,1.111137509E0
8.674350509E0,-5.302000046E-1,-8.464499712E-1,-1.652749926E-1
8.694350509E0,-5.302000046E-1,-8.464499712E-1,-1.652749926E-1
8.714350509E0,-2.148849964E0,5.908374786E-1,-1.681762457E0
8.734350509E0,-2.148849964E0,5.908374786E-1,-1.681762457E0
8.754350509E0,-2.148849964E0,5.908374786E-1,-1.681762457E0
8.774350509E0,-1.632812500E0,2.030324936E0,-2.531512499E0
8.794350509E0,-1.632812500E0,2.030324936E0,-2.531512499E0
8.814350509E0,-1.632812500E0,2.030324936E0,-2.531512499E0
8.834350509E0,-1.632812500E0,2.030324936E0,-2.531512499E0
8.854350509E0,-1.632812500E0,2.030324936E0,-2.531512499E0
8.874350509E0,-6.374499798E-1,1.956624985E-1,-5.970249772E-1
8.894350509E0,-6.374499798E-1,1.956624985E-1,-5.970249772E-1
8.914350509E0,1.792999953E-1,4.949999973E-2,9.047500044E-2
8.934350509E0,1.792999953E-1,4.949999973E-2,9.047500044E-2
8.954350509E0,1.792999953E-1,4.949999973E-2,9.047500044E-2
8.974350509E0,1.792999953E-1,4.949999973E-2,9.047500044E-2
8.994350509E0,1.792999953E-1,4.949999973E-2,9.047500044E-2
9.014350509E0,2.075012445E0,-2.939475060E0,3.072299957E0
9.034350509E0,2.075012445E0,-2.939475060E0,3.072299957E0
9.054350509E0,1.117187500E0,-2.551174879E0,2.634224892E0
9.074350509E0,1.117187500E0,-2.551174879E0,2.634224892E0
9.094350509E0,1.117187500E0,-2.551174879E0,2.634224892E0
9.114350509E0,1.446912527E0,-1.336774945E0,1.296625018E0
9.134350509E0,1.446912527E0,-1.336774945E0,1.296625018E0
9.154350509E0,1.446912527E0,-1.336774945E0,1.296625018E0
9.174350509E0,1.446912527E0,-1.336774945E0,1.296625018E0
9.194350509E0,1.446912527E0,-1.336774945E0,1.296625018E0
9.214350509E0,1.446912527E0,-1.336774945E0,1.296625018E0
9.234350509E0,1.446912527E0,-1.336774945E0,1.296625018E0
9.254350509E0,-1.511812449E0,1.711187482E0,-1.853224993E0
9.274350509E0,-1.511812449E0,1.711187482E0,-1.853224993E0
9.294350509E0,-1.511812449E0,1.711187482E0,-1.853224993E0
9.314350509E0,-1.511812449E0,1.711187482E0,-1.853224993E0
9.334350509E0,-1.511812449E0,1.711187482E0,-1.853224993E0
9.354350509E0,-1.698125005E-1,1.372112513E0,-9.585124850E-1
9.374350509E0,-1.698125005E-1,1.372112513E0,-9.585124850E-1
9.394350509E0,-2.105125040E-1,8.436999917E-1,-4.439874887E-1
9.414350509E0,-2.105125040E-1,8.436999917E-1,-4.439874887E-1
9.434350509E0,-2.105125040E-1,8.436999917E-1,-4.439874887E-1
9.454350509E0,-2.105125040E-1,8.436999917E-1,-4.439874887E-1
9.474350509E0,-2.105125040E-1,8.436999917E-1,-4.439874887E-1
9.494350509E0,-6.489999890E-1,3.691875041E-1,-3.312374949E-1
9.514350509E0,-6.489999890E-1,3.691875041E-1,-3.312374949E-1
9.534350509E0,-6.489999890E-1,3.691875041E-1,-3.312374949E-1
9.554350509E0,-6.489999890E-1,3.691875041E-1,-3.312374949E-1
9.574350509E0,-6.489999890E-1,3.691875041E-1,-3.312374949E-1
9.594350509E0,2.557500079E-2,9.391249716E-2,3.953124881E-1
9.614350509E0,2.557500079E-2,9.391249716E-2,3.953124881E-1
9.634350509E0,3.502124846E-1,-6.800749898E-1,8.709250093E-1
9.654350509E0,3.502124846E-1,-6.800749898E-1,8.709250093E-1
9.674350509E0,3.502124846E-1,-6.800749898E-1,8.709250093E-1
9.694350509E0,3.502124846E-1,-6.800749898E-1,8.709250093E-1
9.714350509E0,3.502124846E-1,-6.800749898E-1,8.709250093E-1
9.734350509E0,1.860512495E0,-2.604249954E0,1.989349961E0
9.754350509E0,1.860512495E0,-2.604249954E0,1.989349961E0
9.774350509E0,1.860512495E0,-2.604249954E0,1.989349961E0
9.794350509E0,1.860512495E0,-2.604249954E0,1.989349961E0
9.814350509E0,1.860512495E0,-2.604249954E0,1.989349961E0
9.834350509E0,5.647125244E-1,-1.747349977E0,8.604750037E-1
9.854350509E0,5.647125244E-1,-1.747349977E0,8.604750037E-1
9.874350509E0,-4.199250042E-1,-2.475000024E-1,-3.792249858E-1
9.894350509E0,-4.199250042E-1,-2.475000024E-1,-3.792249858E-1
9.914350509E0,-4.199250042E-1,-2.475000024E-1,-3.792249858E-1
9.934350509E0,-2.056449890E0,5.640249848E-1,-1.350112438E0
9.954350509E0,-2.056449890E0,5.640249848E-1,-1.350112438E0
9.974350509E0,-2.440350056E0,1.426424980E0,-2.333787441E0
9.994350509E0,-2.440350056E0,1.426424980E0,-2.333787441E0
1.001435051E1,-2.440350056E0,1.426424980E0,-2.333787441E0
1.003435051E1,-2.440350056E0,1.426424980E0,-2.333787441E0
1.005435051E1,-2.440350056E0,1.426424980E0,-2.333787441E0
1.007435051E1,-7.405750155E-1,1.515112519E0,-1.363450050E0
1.009435051E1,-7.405750155E-1,1.515112519E0,-1.363450050E0
1.011435051E1,5.211250111E-2,6.804875135E-1,-3.159750104E-1
1.013435051E1,5.211250111E-2,6.804875135E-1,-3.159750104E-1
1.015435051E1,5.211250111E-2,6.804875135E-1,-3.159750104E-1
1.017435051E1,1.414737463E0,4.644750059E-1,5.963374972E-1
1.019435051E1,1.414737463E0,4.644750059E-1,5.963374972E-1
1.021435051E1,2.614150047E0,-2.243587494E0,2.891350031E0
1.023435051E1,2.614150047E0,-2.243587494E0,2.891350031E0
1.025435051E1,1.879624963E0,-4.091312408E0,4.523337364E0
1.027435051E1,1.879624963E0,-4.091312408E0,4.523337364E0
1.029435051E1,1.879624963E0,-4.091312408E0,4.523337364E0
1.031435051E1,7.532249689E-1,-2.980862379E0,3.364487410E0
1.033435051E1,7.532249689E-1,-2.980862379E0,3.364487410E0
1.035435051E1,7.532249689E-1,-2.980862379E0,3.364487410E0
1.037435051E1,7.532249689E-1,-2.980862379E0,3.364487410E0
1.039435051E1,7.532249689E-1,-2.980862379E0,3.364487410E0
1.041435051E1,3.040125072E-1,4.614500105E-1,-8.852249980E-1
1.043435051E1,3.040125072E-1,4.614500105E-1,-8.852249980E-1
1.045435051E1,3.040125072E-1,4.614500105E-1,-8.852249980E-1
1.047435051E1,3.040125072E-1,4.614500105E-1,-8.852249980E-1
1.049435051E1,3.040125072E-1,4.614500105E-1,-8.852249980E-1
1.051435051E1,3.040125072E-1,4.614500105E-1,-8.852249980E-1
1.053435051E1,3.040125072E-1,4.614500105E-1,-8.852249980E-1
1.055435051E1,-9.736375213E-1,1.948374987E0,-1.821187496E0
1.057435051E1,-9.736375213E-1,1.948374987E0,-1.821187496E0
1.059435051E1,-6.819999814E-1,1.577950001E0,-1.229387522E0
1.061435051E1,-6.819999814E-1,1.577950001E0,-1.229387522E0
1.063435051E1,-6.819999814E-1,1.577950001E0,-1.229387522E0
1.065435051E1,-7.103250027E-1,1.108525038E0,-7.715125084E-1
1.067435051E1,-7.103250027E-1,1.108525038E0,-7.715125084E-1
1.069435051E1,-1.692899942E0,3.091000021E-1,-5.776374936E-1
1.069435051E1,-1.692899942E0,3.091000021E-1,-5.776374936E-1
1.073435051E1,-1.692899942E0,3.091000021E-1,-5.776374936E-1
1.075435051E1,-1.692899942E0,3.091000021E-1,-5.776374936E-1
1.077435051E1,-1.692899942E0,3.091000021E-1,-5.776374936E-1
1.079435051E1,-1.596374959E-1,8.566249907E-2,5.300624967E-1
1.081435051E1,-1.596374959E-1,8.566249907E-2,5.300624967E-1
1.083435051E1,-1.596374959E-1,8.566249907E-2,5.300624967E-1
1.085435051E1,-1.596374959E-1,8.566249907E-2,5.300624967E-1
1.087435051E1,-1.596374959E-1,8.566249907E-2,5.300624967E-1
1.089435051E1,3.159750104E-1,-1.366887450E0,1.517724991E0
1.091435051E1,3.159750104E-1,-1.366887450E0,1.517724991E0
1.093435051E1,1.605450034E0,-2.324300051E0,1.993612528E0
1.095435051E1,1.605450034E0,-2.324300051E0,1.993612528E0
1.097435051E1,1.605450034E0,-2.324300051E0,1.993612528E0
1.099435051E1,8.953999877E-1,-1.912075043E0,1.184837461E0
1.101435051E1,8.953999877E-1,-1.912075043E0,1.184837461E0
1.103435051E1,5.451874733E-1,-1.129012465E0,4.774000049E-1
1.105435051E1,5.451874733E-1,-1.129012465E0,4.774000049E-1
1.107435051E1,5.451874733E-1,-1.129012465E0,4.774000049E-1
1.109435051E1,5.451874733E-1,-1.129012465E0,4.774000049E-1
1.111435051E1,5.451874733E-1,-1.129012465E0,4.774000049E-1
1.113435051E1,-7.067500055E-2,1.958687544E0,-1.868075013E0
1.115435051E1,-7.067500055E-2,1.958687544E0,-1.868075013E0
1.117435051E1,-3.020050049E0,2.141287565E0,-2.350149870E0
1.119435051E1,-3.020050049E0,2.141287565E0,-2.350149870E0
1.121435051E1,-3.020050049E0,2.141287565E0,-2.350149870E0
1.123435051E1,-2.619649887E0,2.826174974E0,-2.860412598E0
1.125435051E1,-2.619649887E0,2.826174974E0,-2.860412598E0
1.127435051E1,-1.946174979E0,1.976012468E0,-1.843187451E0
1.129435051E1,-1.946174979E0,1.976012468E0,-1.843187451E0
1.131435051E1,-1.946174979E0,1.976012468E0,-1.843187451E0
1.133435051E1,-1.946174979E0,1.976012468E0,-1.843187451E0
1.135435051E1,-1.946174979E0,1.976012468E0,-1.843187451E0
1.137435051E1,-2.103749961E-1,5.920749903E-1,4.729999974E-2
1.139435051E1,-2.103749961E-1,5.920749903E-1,4.729999974E-2
1.141435051E1,-2.103749961E-1,5.920749903E-1,4.729999974E-2
1.143435051E1,-2.103749961E-1,5.920749903E-1,4.729999974E-2
1.145435051E1,-2.103749961E-1,5.920749903E-1,4.729999974E-2
1.147435051E1,2.678637505E0,-3.981174946E0,4.319425106E0
1.149435051E1,2.678637505E0,-3.981174946E0,4.319425106E0
1.151435051E1,1.818987489E0,-3.843812466E0,3.802150011E0
1.153435051E1,1.818987489E0,-3.843812466E0,3.802150011E0
1.155435051E1,1.818987489E0,-3.843812466E0,3.802150011E0
1.157435051E1,1.818987489E0,-3.843812466E0,3.802150011E0
1.159435051E1,1.818987489E0,-3.843812466E0,3.802150011E0
1.161435051E1,6.386874914E-1,-6.916250288E-2,4.982999861E-1
1.163435051E1,6.386874914E-1,-6.916250288E-2,4.982999861E-1
1.165435051E1,1.847999990E-1,3.043012381E0,-2.254999876E0
1.167435051E1,1.847999990E-1,3.043012381E0,-2.254999876E0
1.169435051E1,1.847999990E-1,3.043012381E0,-2.254999876E0
1.171435051E1,-1.113337517E0,3.378925085E0,-2.942087412E0
1.173435051E1,-1.113337517E0,3.378925085E0,-2.942087412E0
1.175435051E1,-1.113337517E0,3.378925085E0,-2.942087412E0
1.177435051E1,-1.113337517E0,3.378925085E0,-2.942087412E0
1.179435051E1,-1.113337517E0,3.378925085E0,-2.942087412E0
1.181435051E1,-1.113337517E0,3.378925085E0,-2.942087412E0
1.183435051E1,-1.113337517E0,3.378925085E0,-2.942087412E0
1.185435051E1,-5.403749943E-1,1.369362473E0,-9.805124998E-1
1.187435051E1,-5.403749943E-1,1.369362473E0,-9.805124998E-1
1.189435051E1,-5.403749943E-1,1.369362473E0,-9.805124998E-1
1.191435051E1,-5.403749943E-1,1.369362473E0,-9.805124998E-1
1.193435051E1,-5.403749943E-1,1.369362473E0,-9.805124998E-1
1.195435051E1,-1.538212538E0,-5.240125060E-1,-1.731124967E-1
1.197435051E1,-1.538212538E0,-5.240125060E-1,-1.731124967E-1
1.199435051E1,-4.208875000E-1,1.343374997E-1,2.083124965E-1
1.201435051E1,-4.208875000E-1,1.343374997E-1,2.083124965E-1
1.203435051E1,-4.208875000E-1,1.343374997E-1,2.083124965E-1
1.205435051E1,-1.981374919E-1,-2.527250051E-1,1.035374999E0
1.207435051E1,-1.981374919E-1,-2.527250051E-1,1.035374999E0
1.209435051E1,-8.896250129E-1,-1.371562481E0,1.278200030E0
1.211435051E1,-8.896250129E-1,-1.371562481E0,1.278200030E0
1.213435051E1,-8.896250129E-1,-1.371562481E0,1.278200030E0
1.215435051E1,-8.896250129E-1,-1.371562481E0,1.278200030E0
1.217435051E1,-8.896250129E-1,-1.371562481E0,1.278200030E0
1.219435051E1,1.001962543E0,-1.519374967E0,1.677637458E0
1.221435051E1,1.001962543E0,-1.519374967E0,1.677637458E0
1.223435051E1,4.859249890E-1,-1.498199940E0,1.031250000E0
1.225435051E1,4.859249890E-1,-1.498199940E0,1.031250000E0
1.227435051E1,4.859249890E-1,-1.498199940E0,1.031250000E0
1.229435051E1,8.786249906E-2,-6.554625034E-1,3.366000056E-1
1.231435051E1,8.786249906E-2,-6.554625034E-1,3.366000056E-1
1.233435051E1,1.422987461E0,3.113275051E0,-8.531875014E-1
1.235435051E1,1.422987461E0,3.113275051E0,-8.531875014E-1
1.237435051E1,1.422987461E0,3.113275051E0,-8.531875014E-1
1.239435051E1,1.422987461E0,3.113275051E0,-8.531875014E-1
1.241435051E1,1.422987461E0,3.113275051E0,-8.531875014E-1
1.243435051E1,1.422987461E0,3.113275051E0,-8.531875014E-1
1.245435051E1,1.422987461E0,3.113275051E0,-8.531875014E-1
1.247435051E1,1.422987461E0,3.113275051E0,-8.531875014E-1
1.249435051E1,1.422987461E0,3.113275051E0,-8.531875014E-1
1.251435051E1,1.422987461E0,3.113275051E0,-8.531875014E-1
1.253435051E1,-1.035925031E0,1.433712482E0,-1.516762495E0
1.255435051E1,-1.035925031E0,1.433712482E0,-1.516762495E0
1.257435051E1,-3.924250007E-1,7.686249912E-2,2.265999913E-1
1.259435051E1,-3.924250007E-1,7.686249912E-2,2.265999913E-1
1.261435051E1,-3.924250007E-1,7.686249912E-2,2.265999913E-1
1.263435051E1,-3.924250007E-1,7.686249912E-2,2.265999913E-1
1.265435051E1,-3.924250007E-1,7.686249912E-2,2.265999913E-1
1.267435051E1,1.477025032E0,9.033749700E-1,2.054250002E0
1.269435051E1,1.477025032E0,9.033749700E-1,2.054250002E0
1.271435051E1,1.477025032E0,9.033749700E-1,2.054250002E0
1.273435051E1,1.477025032E0,9.033749700E-1,2.054250002E0
1.275435051E1,1.477025032E0,9.033749700E-1,2.054250002E0
1.277435051E1,1.161049962E0,-1.259637475E0,2.416562557E0
1.279435051E1,1.161049962E0,-1.259637475E0,2.416562557E0
1.281435051E1,1.161049962E0,-1.259637475E0,2.416562557E0
1.283435051E1,1.161049962E0,-1.259637475E0,2.416562557E0
1.285435051E1,1.161049962E0,-1.259637475E0,2.416562557E0
1.287435051E1,1.161049962E0,-1.259637475E0,2.416562557E0
1.289435051E1,1.161049962E0,-1.259637475E0,2.416562557E0
1.291435051E1,-3.759250045E-1,1.572450042E0,-2.044487476E0
1.293435051E1,-3.759250045E-1,1.572450042E0,-2.044487476E0
1.295435051E1,-3.759250045E-1,1.572450042E0,-2.044487476E0
1.297435051E1,-3.759250045E-1,1.572450042E0,-2.044487476E0
1.299435051E1,-3.759250045E-1,1.572450042E0,-2.044487476E0
1.301435051E1,-4.402749836E-1,1.893374920E-1,-9.576874971E-1
1.303435051E1,-4.402749836E-1,1.893374920E-1,-9.576874971E-1
1.305435051E1,-3.313750029E-2,3.184500039E-1,-3.235374987E-1
1.307435051E1,-3.313750029E-2,3.184500039E-1,-3.235374987E-1
1.309435051E1,-3.313750029E-2,3.184500039E-1,-3.235374987E-1
1.311435051E1,-8.387500420E-3,1.751749963E-1,9.102500230E-2
1.313435051E1,-8.387500420E-3,1.751749963E-1,9.102500230E-2
1.315435051E1,-8.387500420E-3,1.751749963E-1,9.102500230E-2
1.317435051E1,-8.387500420E-3,1.751749963E-1,9.102500230E-2
1.319435051E1,-8.387500420E-3,1.751749963E-1,9.102500230E-2
1.321435051E1,-8.387500420E-3,1.751749963E-1,9.102500230E-2
1.323435051E1,-8.387500420E-3,1.751749963E-1,9.102500230E-2
1.325435051E1,-7.928249836E-1,2.571249902E-1,-5.303375125E-1
1.327435051E1,-7.928249836E-1,2.571249902E-1,-5.303375125E-1
1.329435051E1,-5.271750093E-1,6.615124941E-1,2.406249940E-1
1.331435051E1,-5.271750093E-1,6.615124941E-1,2.406249940E-1
1.333435051E1,-5.271750093E-1,6.615124941E-1,2.406249940E-1
1.335435051E1,-5.673249960E-1,6.188874841E-1,1.047062516E0
1.337435051E1,-5.673249960E-1,6.188874841E-1,1.047062516E0
1.339435051E1,-1.601874977E-1,8.644624949E-1,1.837412477E0
1.341435051E1,-1.601874977E-1,8.644624949E-1,1.837412477E0
1.343435051E1,-1.601874977E-1,8.644624949E-1,1.837412477E0
1.345435051E1,-1.601874977E-1,8.644624949E-1,1.837412477E0
1.347435051E1,-1.601874977E-1,8.644624949E-1,1.837412477E0
1.349435051E1,-1.601874977E-1,8.644624949E-1,1.837412477E0
1.351435051E1,-1.601874977E-1,8.644624949E-1,1.837412477E0
1.353435051E1,-1.601874977E-1,8.644624949E-1,1.837412477E0
1.355435051E1,-1.601874977E-1,8.644624949E-1,1.837412477E0
1.357435051E1,-1.601874977E-1,8.644624949E-1,1.837412477E0
1.359435051E1,1.023000032E-1,4.004687309E0,-7.374125123E-1
1.361435051E1,1.023000032E-1,4.004687309E0,-7.374125123E-1
1.363435051E1,-2.366375029E-1,1.042250037E0,-2.166862488E0
1.365435051E1,-2.366375029E-1,1.042250037E0,-2.166862488E0
1.367435051E1,-2.366375029E-1,1.042250037E0,-2.166862488E0
1.369435051E1,-2.366375029E-1,1.042250037E0,-2.166862488E0
1.371435051E1,-2.366375029E-1,1.042250037E0,-2.166862488E0
1.373435051E1,-4.945875108E-1,-6.187499762E-1,-3.127987385E0
1.375435051E1,-4.945875108E-1,-6.187499762E-1,-3.127987385E0
1.377435051E1,-4.945875108E-1,-6.187499762E-1,-3.127987385E0
1.379435051E1,-4.945875108E-1,-6.187499762E-1,-3.127987385E0
1.381435051E1,-4.945875108E-1,-6.187499762E-1,-3.127987385E0
1.383435051E1,-3.590124846E-1,-4.945875108E-1,-9.259250164E-1
1.385435051E1,-3.590124846E-1,-4.945875108E-1,-9.259250164E-1
1.387435051E1,-3.590124846E-1,-4.945875108E-1,-9.259250164E-1
1.389435051E1,-3.590124846E-1,-4.945875108E-1,-9.259250164E-1
1.391435051E1,-3.590124846E-1,-4.945875108E-1,-9.259250164E-1
1.393435051E1,-3.590124846E-1,-4.945875108E-1,-9.259250164E-1
1.395435051E1,-3.590124846E-1,-4.945875108E-1,-9.259250164E-1
1.397435051E1,4.127750099E-1,2.333512545E0,3.228499889E0
1.399435051E1,4.127750099E-1,2.333512545E0,3.228499889E0
1.401435051E1,6.287875175E-1,3.504324913E0,2.626112461E0
1.403435051E1,6.287875175E-1,3.504324913E0,2.626112461E0
1.405435051E1,6.287875175E-1,3.504324913E0,2.626112461E0
1.407435051E1,4.639250040E-1,2.331587553E0,1.506037474E0
1.409435051E1,4.639250040E-1,2.331587553E0,1.506037474E0
1.411435051E1,4.639250040E-1,2.331587553E0,1.506037474E0
1.413435051E1,4.639250040E-1,2.331587553E0,1.506037474E0
1.415435051E1,4.639250040E-1,2.331587553E0,1.506037474E0
1.417435051E1,5.391374826E-1,-6.363499761E-1,-1.054625034E0
1.419435051E1,5.391374826E-1,-6.363499761E-1,-1.054625034E0
1.421435051E1,2.012999952E-1,-1.407999992E0,-1.068787456E0
1.423435051E1,2.012999952E-1,-1.407999992E0,-1.068787456E0
1.425435051E1,2.012999952E-1,-1.407999992E0,-1.068787456E0
1.427435051E1,2.012999952E-1,-1.407999992E0,-1.068787456E0
1.429435051E1,2.012999952E-1,-1.407999992E0,-1.068787456E0
1.431435051E1,7.796250284E-2,-1.222787499E0,-7.265499830E-1
1.433435051E1,7.796250284E-2,-1.222787499E0,-7.265499830E-1
1.435435051E1,1.171500012E-1,-6.884624958E-1,-3.566749990E-1
1.437435051E1,1.171500012E-1,-6.884624958E-1,-3.566749990E-1
1.439435051E1,1.171500012E-1,-6.884624958E-1,-3.566749990E-1
1.441435051E1,-5.678749830E-2,-4.899125099E-1,-3.425124884E-1
1.443435051E1,-5.678749830E-2,-4.899125099E-1,-3.425124884E-1
1.445435051E1,-5.678749830E-2,-4.899125099E-1,-3.425124884E-1
1.447435051E1,-5.678749830E-2,-4.899125099E-1,-3.425124884E-1
1.449435051E1,-5.678749830E-2,-4.899125099E-1,-3.425124884E-1
1.451435051E1,-5.678749830E-2,-4.899125099E-1,-3.425124884E-1
1.453435051E1,-5.678749830E-2,-4.899125099E-1,-3.425124884E-1
1.455435051E1,-5.458750129E-1,7.983250022E-1,4.542999864E-1
1.457435051E1,-5.458750129E-1,7.983250022E-1,4.542999864E-1
1.459435051E1,-5.458750129E-1,7.983250022E-1,4.542999864E-1
1.461435051E1,-5.458750129E-1,7.983250022E-1,4.542999864E-1
1.463435051E1,-5.458750129E-1,7.983250022E-1,4.542999864E-1
1.465435051E1,-9.982500076E-1,1.976287484E0,1.399612546E0
1.467435051E1,-9.982500076E-1,1.976287484E0,1.399612546E0
1.469435051E1,-2.980999947E-1,3.949137449E0,1.478950024E0
1.471435051E1,-2.980999947E-1,3.949137449E0,1.478950024E0
1.473435051E1,-2.980999947E-1,3.949137449E0,1.478950024E0
1.475435051E1,-2.980999947E-1,3.949137449E0,1.478950024E0
1.477435051E1,-2.980999947E-1,3.949137449E0,1.478950024E0
1.479435051E1,-1.019012451E0,2.133312464E0,-2.076249942E-2
1.481435051E1,-1.019012451E0,2.133312464E0,-2.076249942E-2
1.483435051E1,-1.019012451E0,2.133312464E0,-2.076249942E-2
1.485435051E1,-1.019012451E0,2.133312464E0,-2.076249942E-2
1.487435051E1,-1.019012451E0,2.133312464E0,-2.076249942E-2
1.489435051E1,-2.997500077E-2,1.541649938E0,-3.697375059E-1
1.491435051E1,-2.997500077E-2,1.541649938E0,-3.697375059E-1
1.493435051E1,-4.166249931E-2,2.905375063E-1,-5.975750089E-1
1.495435051E1,-4.166249931E-2,2.905375063E-1,-5.975750089E-1
1.497435051E1,-4.166249931E-2,2.905375063E-1,-5.975750089E-1
1.499435051E1,-4.166249931E-2,2.905375063E-1,-5.975750089E-1
1.501435051E1,-4.166249931E-2,2.905375063E-1,-5.975750089E-1
1.503435051E1,-4.166249931E-2,2.905375063E-1,-5.975750089E-1
1.505435051E1,-4.166249931E-2,2.905375063E-1,-5.975750089E-1
1.507435051E1,3.678124845E-1,-1.554574966E0,-1.480187535E0
1.509435051E1,3.678124845E-1,-1.554574966E0,-1.480187535E0
1.511435051E1,3.678124845E-1,-1.554574966E0,-1.480187535E0
1.513435051E1,7.210500240E-1,-1.577125043E-1,-7.013875246E-1
1.515435051E1,7.210500240E-1,-1.577125043E-1,-7.013875246E-1
1.517435051E1,7.210500240E-1,-1.577125043E-1,-7.013875246E-1
1.519435051E1,7.210500240E-1,-1.577125043E-1,-7.013875246E-1
1.521435051E1,7.210500240E-1,-1.577125043E-1,-7.013875246E-1
1.523435051E1,1.573962450E0,2.812562466E0,7.743999958E-1
1.525435051E1,1.573962450E0,2.812562466E0,7.743999958E-1
1.527435051E1,5.480750203E-1,3.383187532E0,2.368025064E0
1.529435051E1,5.480750203E-1,3.383187532E0,2.368025064E0
1.531435051E1,5.480750203E-1,3.383187532E0,2.368025064E0
1.533435051E1,5.480750203E-1,3.383187532E0,2.368025064E0
1.535435051E1,5.480750203E-1,3.383187532E0,2.368025064E0
1.537435051E1,-1.931875050E-1,1.050225019E0,1.269812465E0
1.539435051E1,-1.931875050E-1,1.050225019E0,1.269812465E0
1.541435051E1,-1.931875050E-1,1.050225019E0,1.269812465E0
1.543435051E1,-1.931875050E-1,1.050225019E0,1.269812465E0
1.545435051E1,-1.931875050E-1,1.050225019E0,1.269812465E0
1.547435051E1,-4.427500069E-2,-1.728787541E0,-5.772249699E-1
1.549435051E1,-4.427500069E-2,-1.728787541E0,-5.772249699E-1
1.551435051E1,-6.022499874E-2,-2.138400078E0,-8.690000176E-1
1.553435051E1,-6.022499874E-2,-2.138400078E0,-8.690000176E-1
1.555435051E1,-6.022499874E-2,-2.138400078E0,-8.690000176E-1
1.557435051E1,-6.022499874E-2,-2.138400078E0,-8.690000176E-1
1.559435051E1,-6.022499874E-2,-2.138400078E0,-8.690000176E-1
1.561435051E1,4.173125029E-1,-1.042250037E0,-6.430875063E-1
1.563435051E1,4.173125029E-1,-1.042250037E0,-6.430875063E-1
1.565435051E1,4.173125029E-1,-1.042250037E0,-6.430875063E-1
1.567435051E1,4.173125029E-1,-1.042250037E0,-6.430875063E-1
1.569435051E1,4.173125029E-1,-1.042250037E0,-6.430875063E-1
1.571435051E1,9.006249905E-2,-9.678624868E-1,-1.755875051E-1
1.573435051E1,9.006249905E-2,-9.678624868E-1,-1.755875051E-1
1.575435051E1,-2.851749957E-1,-1.341037512E0,-5.941374898E-1
1.577435051E1,-2.851749957E-1,-1.341037512E0,-5.941374898E-1
1.579435051E1,-2.851749957E-1,-1.341037512E0,-5.941374898E-1
1.581435051E1,-2.851749957E-1,-1.341037512E0,-5.941374898E-1
1.583435051E1,-2.851749957E-1,-1.341037512E0,-5.941374898E-1
1.585435051E1,-1.870000064E-1,5.761250108E-2,-6.022499874E-2
1.587435051E1,-1.870000064E-1,5.761250108E-2,-6.022499874E-2
1.589435051E1,-1.870000064E-1,5.761250108E-2,-6.022499874E-2
1.591435051E1,-1.870000064E-1,5.761250108E-2,-6.022499874E-2
1.593435051E1,-1.870000064E-1,5.761250108E-2,-6.022499874E-2
1.595435051E1,-8.434249759E-1,1.117187500E0,7.822374701E-1
1.597435051E1,-8.434249759E-1,1.117187500E0,7.822374701E-1
1.599435051E1,-4.239124954E-1,2.728825092E0,1.105912447E0
1.601435051E1,-4.239124954E-1,2.728825092E0,1.105912447E0
1.603435051E1,-4.239124954E-1,2.728825092E0,1.105912447E0
1.605435051E1,-4.239124954E-1,2.728825092E0,1.105912447E0
1.607435051E1,-4.239124954E-1,2.728825092E0,1.105912447E0
1.609435051E1,-1.041562438E0,1.595687509E0,3.113000095E-1
1.611435051E1,-1.041562438E0,1.595687509E0,3.113000095E-1
1.613435051E1,-1.041562438E0,1.595687509E0,3.113000095E-1
1.615435051E1,-1.041562438E0,1.595687509E0,3.113000095E-1
1.617435051E1,-1.041562438E0,1.595687509E0,3.113000095E-1
1.619435051E1,-5.948249698E-1,5.989499688E-1,2.901249938E-2
1.621435051E1,-5.948249698E-1,5.989499688E-1,2.901249938E-2
1.623435051E1,-5.948249698E-1,5.989499688E-1,2.901249938E-2
1.625435051E1,-5.948249698E-1,5.989499688E-1,2.901249938E-2
1.627435051E1,-5.948249698E-1,5.989499688E-1,2.901249938E-2
1.629435051E1,3.726249933E-1,-2.620887518E0,-3.056624889E0
1.631435051E1,3.726249933E-1,-2.620887518E0,-3.056624889E0
1.633435051E1,7.272375226E-1,-9.699249864E-1,-1.974362493E0
1.635435051E1,7.272375226E-1,-9.699249864E-1,-1.974362493E0
1.637435051E1,7.272375226E-1,-9.699249864E-1,-1.974362493E0
1.639435051E1,7.272375226E-1,-9.699249864E-1,-1.974362493E0
1.641435051E1,7.272375226E-1,-9.699249864E-1,-1.974362493E0
1.643435051E1,7.272375226E-1,-9.699249864E-1,-1.974362493E0
1.645435051E1,7.272375226E-1,-9.699249864E-1,-1.974362493E0
1.647435051E1,1.795749962E-1,1.444712520E0,2.246337414E0
1.649435051E1,1.795749962E-1,1.444712520E0,2.246337414E0
1.651435051E1,1.795749962E-1,1.444712520E0,2.246337414E0
1.653435051E1,4.182749987E-1,4.889912605E0,3.889737368E0
1.655435051E1,4.182749987E-1,4.889912605E0,3.889737368E0
1.657435051E1,4.182749987E-1,4.889912605E0,3.889737368E0
1.659435051E1,4.182749987E-1,4.889912605E0,3.889737368E0
1.661435051E1,4.182749987E-1,4.889912605E0,3.889737368E0
1.663435051E1,4.182749987E-1,4.889912605E0,3.889737368E0
1.665435051E1,4.182749987E-1,4.889912605E0,3.889737368E0
1.667435051E1,1.391775012E0,-3.524124920E-1,-4.411000013E-1
1.669435051E1,1.391775012E0,-3.524124920E-1,-4.411000013E-1
1.671435051E1,1.391775012E0,-3.524124920E-1,-4.411000013E-1
1.673435051E1,1.391775012E0,-3.524124920E-1,-4.411000013E-1
1.675435051E1,1.391775012E0,-3.524124920E-1,-4.411000013E-1
1.677435051E1,3.004375100E-1,-2.675199986E0,-1.376649976E0
1.679435051E1,3.004375100E-1,-2.675199986E0,-1.376649976E0
1.681435051E1,2.538250089E-1,-2.302025080E0,-1.010212541E0
1.683435051E1,2.538250089E-1,-2.302025080E0,-1.010212541E0
1.685435051E1,2.538250089E-1,-2.302025080E0,-1.010212541E0
1.687435051E1,2.538250089E-1,-2.302025080E0,-1.010212541E0
1.689435051E1,2.538250089E-1,-2.302025080E0,-1.010212541E0
1.691435051E1,6.403374672E-1,-5.355625153E-1,5.004999787E-2
1.693435051E1,6.403374672E-1,-5.355625153E-1,5.004999787E-2
1.695435051E1,6.403374672E-1,-5.355625153E-1,5.004999787E-2
1.697435051E1,6.403374672E-1,-5.355625153E-1,5.004999787E-2
1.699435051E1,6.403374672E-1,-5.355625153E-1,5.004999787E-2
1.701435051E1,2.293500006E-1,-3.132250011E-1,5.077875257E-1
1.703435051E1,2.293500006E-1,-3.132250011E-1,5.077875257E-1
1.705435051E1,-1.924999990E-3,-5.941374898E-1,-3.011249937E-2
1.707435051E1,-1.924999990E-3,-5.941374898E-1,-3.011249937E-2
1.709435051E1,-1.924999990E-3,-5.941374898E-1,-3.011249937E-2
1.711435051E1,-1.924999990E-3,-5.941374898E-1,-3.011249937E-2
1.713435051E1,-1.924999990E-3,-5.941374898E-1,-3.011249937E-2
1.715435051E1,-3.533749878E-1,-1.388750039E-2,-2.224749923E-1
1.717435051E1,-3.533749878E-1,-1.388750039E-2,-2.224749923E-1
1.719435051E1,-3.533749878E-1,-1.388750039E-2,-2.224749923E-1
1.721435051E1,-3.533749878E-1,-1.388750039E-2,-2.224749923E-1
1.723435051E1,-3.533749878E-1,-1.388750039E-2,-2.224749923E-1
1.725435051E1,-3.533749878E-1,-1.388750039E-2,-2.224749923E-1
1.727435051E1,-3.533749878E-1,-1.388750039E-2,-2.224749923E-1
1.729435051E1,-3.533749878E-1,-1.388750039E-2,-2.224749923E-1
1.731435051E1,-3.533749878E-1,-1.388750039E-2,-2.224749923E-1
1.733435051E1,-3.533749878E-1,-1.388750039E-2,-2.224749923E-1
1.735435051E1,5.169999972E-2,4.021049976E0,1.707612514E0
1.737435051E1,5.169999972E-2,4.021049976E0,1.707612514E0
1.739435051E1,-3.422375023E-1,2.746974945E0,9.421499968E-1
1.741435051E1,-3.422375023E-1,2.746974945E0,9.421499968E-1
1.743435051E1,-3.422375023E-1,2.746974945E0,9.421499968E-1
1.745435051E1,-3.422375023E-1,2.746974945E0,9.421499968E-1
1.747435051E1,-3.422375023E-1,2.746974945E0,9.421499968E-1
1.749435051E1,-1.042387486E0,-2.543337584E0,-2.706687450E0
1.751435051E1,-1.042387486E0,-2.543337584E0,-2.706687450E0
1.753435051E1,-2.495625019E-1,-1.620574951E0,-2.607549906E0
1.755435051E1,-2.495625019E-1,-1.620574951E0,-2.607549906E0
1.757435051E1,-2.495625019E-1,-1.620574951E0,-2.607549906E0
1.759435051E1,-3.683624864E-1,-1.109762549E0,-1.394112468E0
1.761435051E1,-3.683624864E-1,-1.109762549E0,-1.394112468E0
1.763435051E1,-3.683624864E-1,-1.109762549E0,-1.394112468E0
1.765435051E1,-3.683624864E-1,-1.109762549E0,-1.394112468E0
1.767435051E1,-3.683624864E-1,-1.109762549E0,-1.394112468E0
1.769435051E1,-3.683624864E-1,-1.109762549E0,-1.394112468E0
1.771435051E1,-3.683624864E-1,-1.109762549E0,-1.394112468E0
1.773435051E1,2.723875046E-1,1.562274933E0,6.399250031E-1
1.775435051E1,2.723875046E-1,1.562274933E0,6.399250031E-1
1.777435051E1,-1.666499972E-1,8.403999805E-1,6.150375009E-1
1.777435051E1,-1.666499972E-1,8.403999805E-1,6.150375009E-1
1.781435051E1,-1.666499972E-1,8.403999805E-1,6.150375009E-1
1.783435051E1,4.688749835E-2,2.371875048E-1,-1.593624949E-1
1.785435051E1,4.688749835E-2,2.371875048E-1,-1.593624949E-1
1.787435051E1,-6.599999964E-3,-6.061000228E-1,-9.286749959E-1
1.789435051E1,-6.599999964E-3,-6.061000228E-1,-9.286749959E-1
1.791435051E1,-6.599999964E-3,-6.061000228E-1,-9.286749959E-1
1.793435051E1,-6.599999964E-3,-6.061000228E-1,-9.286749959E-1
1.795435051E1,-6.599999964E-3,-6.061000228E-1,-9.286749959E-1
1.797435051E1,2.461249940E-2,-3.159750104E-1,-4.442625046E-1
1.799435051E1,2.461249940E-2,-3.159750104E-1,-4.442625046E-1
1.801435051E1,2.461249940E-2,-3.159750104E-1,-4.442625046E-1
1.803435051E1,2.461249940E-2,-3.159750104E-1,-4.442625046E-1
1.805435051E1,2.461249940E-2,-3.159750104E-1,-4.442625046E-1
1.807435051E1,-8.222500235E-2,-9.308750182E-2,1.817750037E-1
1.809435051E1,-8.222500235E-2,-9.308750182E-2,1.817750037E-1
1.811435051E1,-4.166249931E-2,-6.063750014E-2,3.295874894E-1
1.813435051E1,-4.166249931E-2,-6.063750014E-2,3.295874894E-1
1.815435051E1,-4.166249931E-2,-6.063750014E-2,3.295874894E-1
1.817435051E1,-4.166249931E-2,-6.063750014E-2,3.295874894E-1
1.819435051E1,-4.166249931E-2,-6.063750014E-2,3.295874894E-1
1.821435051E1,1.377750039E-1,-1.001824975E0,-8.672124743E-1
1.823435051E1,1.377750039E-1,-1.001824975E0,-8.672124743E-1
1.825435051E1,-1.099999994E-2,-1.530375004E0,-9.175375104E-1
1.827435051E1,-1.099999994E-2,-1.530375004E0,-9.175375104E-1
1.829435051E1,-1.099999994E-2,-1.530375004E0,-9.175375104E-1
1.831435051E1,2.063875049E-1,-1.297999978E0,-1.105499983E0
1.833435051E1,2.063875049E-1,-1.297999978E0,-1.105499983E0
1.835435051E1,2.063875049E-1,-1.297999978E0,-1.105499983E0
1.837435051E1,2.063875049E-1,-1.297999978E0,-1.105499983E0
1.839435051E1,2.063875049E-1,-1.297999978E0,-1.105499983E0
1.841435051E1,4.531999826E-1,-7.160999775E-1,8.291249722E-2
1.843435051E1,4.531999826E-1,-7.160999775E-1,8.291249722E-2
1.845435051E1,4.531999826E-1,-7.160999775E-1,8.291249722E-2
1.847435051E1,4.531999826E-1,-7.160999775E-1,8.291249722E-2
1.849435051E1,4.531999826E-1,-7.160999775E-1,8.291249722E-2
1.851435051E1,4.531999826E-1,-7.160999775E-1,8.291249722E-2
1.853435051E1,4.531999826E-1,-7.160999775E-1,8.291249722E-2
1.855435051E1,-6.558749825E-2,-1.413499951E0,1.469737530E0
1.857435051E1,-6.558749825E-2,-1.413499951E0,1.469737530E0
1.859435051E1,-3.093750030E-2,-1.350112438E0,1.469187498E0
1.861435051E1,-3.093750030E-2,-1.350112438E0,1.469187498E0
1.863435051E1,-3.093750030E-2,-1.350112438E0,1.469187498E0
1.865435051E1,-1.443750039E-2,-1.257162452E0,5.381749868E-1
1.867435051E1,-1.443750039E-2,-1.257162452E0,5.381749868E-1
1.869435051E1,1.137812495E0,1.366337538E0,-3.129499853E-1
1.871435051E1,1.137812495E0,1.366337538E0,-3.129499853E-1
1.873435051E1,1.137812495E0,1.366337538E0,-3.129499853E-1
1.875435051E1,1.137812495E0,1.366337538E0,-3.129499853E-1
1.877435051E1,1.137812495E0,1.366337538E0,-3.129499853E-1
1.879435051E1,1.137812495E0,1.366337538E0,-3.129499853E-1
1.881435051E1,1.137812495E0,1.366337538E0,-3.129499853E-1
1.883435051E1,1.137812495E0,1.366337538E0,-3.129499853E-1
1.885435051E1,1.137812495E0,1.366337538E0,-3.129499853E-1
1.887435051E1,1.137812495E0,1.366337538E0,-3.129499853E-1
1.889435051E1,1.032899976E0,1.854050040E0,2.899875045E-1
1.891435051E1,1.032899976E0,1.854050040E0,2.899875045E-1
1.893435051E1,-8.084999770E-2,8.456249833E-1,1.245612502E0
1.895435051E1,-8.084999770E-2,8.456249833E-1,1.245612502E0
1.897435051E1,-8.084999770E-2,8.456249833E-1,1.245612502E0
1.899435051E1,-8.084999770E-2,8.456249833E-1,1.245612502E0
1.901435051E1,-8.084999770E-2,8.456249833E-1,1.245612502E0
1.903435051E1,-8.181250095E-2,8.593750000E-2,9.337624907E-1
1.905435051E1,-8.181250095E-2,8.593750000E-2,9.337624907E-1
1.907435051E1,-8.181250095E-2,8.593750000E-2,9.337624907E-1
1.909435051E1,-8.181250095E-2,8.593750000E-2,9.337624907E-1
1.911435051E1,-8.181250095E-2,8.593750000E-2,9.337624907E-1
1.913435051E1,1.887875050E-1,-4.199250042E-1,-1.570249945E-1
1.915435051E1,1.887875050E-1,-4.199250042E-1,-1.570249945E-1
1.917435051E1,4.089249969E-1,-5.238749981E-1,-9.519125223E-1
1.919435051E1,4.089249969E-1,-5.238749981E-1,-9.519125223E-1
1.921435051E1,4.089249969E-1,-5.238749981E-1,-9.519125223E-1
1.923435051E1,4.089249969E-1,-5.238749981E-1,-9.519125223E-1
1.925435051E1,4.089249969E-1,-5.238749981E-1,-9.519125223E-1
1.927435051E1,2.421374917E-1,-2.600125074E-1,-1.171087503E0
1.929435051E1,2.421374917E-1,-2.600125074E-1,-1.171087503E0
1.931435051E1,-4.680500031E-1,-8.948500156E-1,-1.050775051E0
1.933435051E1,-4.680500031E-1,-8.948500156E-1,-1.050775051E0
1.935435051E1,-4.680500031E-1,-8.948500156E-1,-1.050775051E0
1.937435051E1,-9.378874898E-1,-9.802374840E-1,-3.400374949E-1
1.939435051E1,-9.378874898E-1,-9.802374840E-1,-3.400374949E-1
1.941435051E1,-9.378874898E-1,-9.802374840E-1,-3.400374949E-1
1.943435051E1,-9.378874898E-1,-9.802374840E-1,-3.400374949E-1
1.945435051E1,-9.378874898E-1,-9.802374840E-1,-3.400374949E-1
1.947435051E1,-1.188274980E0,1.233374953E0,1.595412493E0
1.949435051E1,-1.188274980E0,1.233374953E0,1.595412493E0
1.951435051E1,-1.188274980E0,1.233374953E0,1.595412493E0
1.953435051E1,-1.188274980E0,1.233374953E0,1.595412493E0
1.955435051E1,-1.188274980E0,1.233374953E0,1.595412493E0
1.957435051E1,-1.188274980E0,1.233374953E0,1.595412493E0
1.959435051E1,-1.188274980E0,1.233374953E0,1.595412493E0
1.961435051E1,-1.384624988E-1,4.432724953E0,1.606824994E0
1.963435051E1,-1.384624988E-1,4.432724953E0,1.606824994E0
1.965435051E1,-1.805374920E-1,3.615287542E0,8.076750040E-1
1.967435051E1,-1.805374920E-1,3.615287542E0,8.076750040E-1
1.969435051E1,-1.805374920E-1,3.615287542E0,8.076750040E-1
1.971435051E1,-1.377750039E-1,2.156687498E0,-5.559124947E-1
1.973435051E1,-1.377750039E-1,2.156687498E0,-5.559124947E-1
1.975435051E1,4.681875110E-1,7.990124822E-1,-2.026887417E0
1.977435051E1,4.681875110E-1,7.990124822E-1,-2.026887417E0
1.979435051E1,4.681875110E-1,7.990124822E-1,-2.026887417E0
1.981435051E1,4.681875110E-1,7.990124822E-1,-2.026887417E0
1.983435051E1,4.681875110E-1,7.990124822E-1,-2.026887417E0
1.985435051E1,4.681875110E-1,7.990124822E-1,-2.026887417E0
1.987435051E1,4.681875110E-1,7.990124822E-1,-2.026887417E0
1.989435051E1,4.681875110E-1,7.990124822E-1,-2.026887417E0
1.991435051E1,4.681875110E-1,7.990124822E-1,-2.026887417E0
1.993435051E1,4.681875110E-1,7.990124822E-1,-2.026887417E0
1.995435051E1,-2.353999913E-1,-6.747124791E-1,-1.214125037E0
1.997435051E1,-2.353999913E-1,-6.747124791E-1,-1.214125037E0
1.999435051E1,-7.002875209E-1,9.979749918E-1,8.351749778E-1
2.001435051E1,-7.002875209E-1,9.979749918E-1,8.351749778E-1
2.003435051E1,-7.002875209E-1,9.979749918E-1,8.351749778E-1
2.005435051E1,-7.002875209E-1,9.979749918E-1,8.351749778E-1
2.007435051E1,-7.002875209E-1,9.979749918E-1,8.351749778E-1
2.009435051E1,9.624999948E-4,3.490437508E0,2.754812479E0
2.011435051E1,9.624999948E-4,3.490437508E0,2.754812479E0
2.013435051E1,9.112125039E-1,3.319799900E0,2.666949987E0
2.015435051E1,9.112125039E-1,3.319799900E0,2.666949987E0
2.017435051E1,9.112125039E-1,3.319799900E0,2.666949987E0
2.019435051E1,5.449125171E-1,2.257612467E0,1.598162532E0
2.021435051E1,5.449125171E-1,2.257612467E0,1.598162532E0
2.023435051E1,5.449125171E-1,2.257612467E0,1.598162532E0
2.025435051E1,5.449125171E-1,2.257612467E0,1.598162532E0
2.027435051E1,5.449125171E-1,2.257612467E0,1.598162532E0
2.029435051E1,5.449125171E-1,2.257612467E0,1.598162532E0
2.031435051E1,5.449125171E-1,2.257612467E0,1.598162532E0
2.033435051E1,4.054875076E-1,-1.044862509E0,-1.264174938E0
2.035435051E1,4.054875076E-1,-1.044862509E0,-1.264174938E0
2.037435051E1,4.054875076E-1,-1.044862509E0,-1.264174938E0
2.039435051E1,4.054875076E-1,-1.044862509E0,-1.264174938E0
2.041435051E1,4.054875076E-1,-1.044862509E0,-1.264174938E0
2.043435051E1,1.196250021E-1,-1.191025019E0,-8.672124743E-1
2.043435051E1,1.196250021E-1,-1.191025019E0,-8.672124743E-1
2.047435051E1,3.995749950E-1,-8.394374847E-1,-5.161749721E-1
2.049435051E1,3.995749950E-1,-8.394374847E-1,-5.161749721E-1
2.051435051E1,3.995749950E-1,-8.394374847E-1,-5.161749721E-1
2.053435051E1,3.690499961E-1,-6.567000151E-1,-1.403875053E-1
2.055435051E1,3.690499961E-1,-6.567000151E-1,-1.403875053E-1
2.057435051E1,-1.410750002E-1,-3.764750063E-1,2.756874859E-1
2.059435051E1,-1.410750002E-1,-3.764750063E-1,2.756874859E-1
2.061435051E1,-1.410750002E-1,-3.764750063E-1,2.756874859E-1
2.063435051E1,-1.410750002E-1,-3.764750063E-1,2.756874859E-1
2.065435051E1,-1.410750002E-1,-3.764750063E-1,2.756874859E-1
2.067435051E1,-4.785000086E-1,-1.129150033E0,-1.949750036E-1
2.069435051E1,-4.785000086E-1,-1.129150033E0,-1.949750036E-1
2.071435051E1,-2.884750068E-1,-8.113874793E-1,-2.454375029E-1
2.073435051E1,-2.884750068E-1,-8.113874793E-1,-2.454375029E-1
2.075435051E1,-2.884750068E-1,-8.113874793E-1,-2.454375029E-1
2.077435051E1,-6.454250216E-1,7.914500237E-1,2.307250053E-1
2.079435051E1,-6.454250216E-1,7.914500237E-1,2.307250053E-1
2.081435051E1,-6.511999965E-1,2.025787592E0,4.993999898E-1
2.083435051E1,-6.511999965E-1,2.025787592E0,4.993999898E-1
2.085435051E1,-6.511999965E-1,2.025787592E0,4.993999898E-1
2.087435051E1,-6.511999965E-1,2.025787592E0,4.993999898E-1
2.089435051E1,-6.511999965E-1,2.025787592E0,4.993999898E-1
2.091435051E1,4.336749911E-1,2.830849886E0,9.107999802E-1
2.093435051E1,4.336749911E-1,2.830849886E0,9.107999802E-1
2.095435051E1,4.336749911E-1,2.830849886E0,9.107999802E-1
2.097435051E1,4.336749911E-1,2.830849886E0,9.107999802E-1
2.099435051E1,4.336749911E-1,2.830849886E0,9.107999802E-1
2.101435051E1,-2.758249938E-1,1.698262453E0,2.586374879E-1
2.103435051E1,-2.758249938E-1,1.698262453E0,2.586374879E-1
2.105435051E1,-5.733749866E-1,8.922374845E-1,-2.586374879E-1
2.107435051E1,-5.733749866E-1,8.922374845E-1,-2.586374879E-1
2.109435051E1,-5.733749866E-1,8.922374845E-1,-2.586374879E-1
2.111435051E1,-5.733749866E-1,8.922374845E-1,-2.586374879E-1
2.113435051E1,-5.733749866E-1,8.922374845E-1,-2.586374879E-1
2.115435051E1,-2.064424992E0,-9.728124738E-1,-1.478262544E0
2.117435051E1,-2.064424992E0,-9.728124738E-1,-1.478262544E0
2.119435051E1,-2.064424992E0,-9.728124738E-1,-1.478262544E0
2.121435051E1,-2.064424992E0,-9.728124738E-1,-1.478262544E0
2.123435051E1,-2.064424992E0,-9.728124738E-1,-1.478262544E0
2.125435051E1,9.042000175E-1,-1.983437538E0,-2.233687401E0
2.127435051E1,9.042000175E-1,-1.983437538E0,-2.233687401E0
2.129435051E1,9.042000175E-1,-1.983437538E0,-2.233687401E0
2.131435051E1,9.042000175E-1,-1.983437538E0,-2.233687401E0
2.133435051E1,9.042000175E-1,-1.983437538E0,-2.233687401E0
2.135435051E1,9.042000175E-1,-1.983437538E0,-2.233687401E0
2.137435051E1,9.042000175E-1,-1.983437538E0,-2.233687401E0
2.139435051E1,8.813749999E-2,1.096974969E0,1.511537433E0
2.141435051E1,8.813749999E-2,1.096974969E0,1.511537433E0
2.143435051E1,8.813749999E-2,1.096974969E0,1.511537433E0
2.145435051E1,8.813749999E-2,1.096974969E0,1.511537433E0
2.147435051E1,8.813749999E-2,1.096974969E0,1.511537433E0
2.149435051E1,1.938749999E-1,1.828337431E0,2.869762421E0
2.151435051E1,1.938749999E-1,1.828337431E0,2.869762421E0
2.153435051E1,-4.310624897E-1,1.380774975E0,2.205637455E0
2.155435051E1,-4.310624897E-1,1.380774975E0,2.205637455E0
2.157435051E1,-4.310624897E-1,1.380774975E0,2.205637455E0
2.159435051E1,1.076349974E0,-2.114749998E-1,2.862749994E-1
2.161435051E1,1.076349974E0,-2.114749998E-1,2.862749994E-1
2.163435051E1,8.060249686E-1,-1.280949950E0,-7.973625064E-1
2.165435051E1,8.060249686E-1,-1.280949950E0,-7.973625064E-1
2.167435051E1,8.060249686E-1,-1.280949950E0,-7.973625064E-1
2.169435051E1,8.060249686E-1,-1.280949950E0,-7.973625064E-1
2.171435051E1,8.060249686E-1,-1.280949950E0,-7.973625064E-1
2.173435051E1,-1.340624988E-1,-1.735387444E0,-8.724374771E-1
2.175435051E1,-1.340624988E-1,-1.735387444E0,-8.724374771E-1
2.177435051E1,-1.340624988E-1,-1.735387444E0,-8.724374771E-1
2.179435051E1,-1.340624988E-1,-1.735387444E0,-8.724374771E-1
2.181435051E1,-1.340624988E-1,-1.735387444E0,-8.724374771E-1
2.183435051E1,1.075799942E0,-1.684787512E0,-5.765374899E-1
2.185435051E1,1.075799942E0,-1.684787512E0,-5.765374899E-1
2.187435051E1,8.720250130E-1,-2.031975031E0,-7.749499679E-1
2.189435051E1,8.720250130E-1,-2.031975031E0,-7.749499679E-1
2.191435051E1,-6.173750013E-2,-3.202924967E0,-1.102200031E0
2.193435051E1,-6.173750013E-2,-3.202924967E0,-1.102200031E0
2.195435051E1,-6.173750013E-2,-3.202924967E0,-1.102200031E0
2.197435051E1,2.523125112E-1,-1.854599953E0,-7.590000033E-1
2.199435051E1,2.523125112E-1,-1.854599953E0,-7.590000033E-1
2.201435051E1,2.523125112E-1,-1.854599953E0,-7.590000033E-1
2.203435051E1,2.523125112E-1,-1.854599953E0,-7.590000033E-1
2.205435051E1,2.523125112E-1,-1.854599953E0,-7.590000033E-1
2.207435051E1,-1.270637512E0,1.933937430E0,1.224025011E0
2.209435051E1,-1.270637512E0,1.933937430E0,1.224025011E0
2.211435051E1,-1.480462551E0,3.336299896E0,2.021387577E0
2.213435051E1,-1.480462551E0,3.336299896E0,2.021387577E0
2.215435051E1,-1.480462551E0,3.336299896E0,2.021387577E0
2.217435051E1,-1.480462551E0,3.336299896E0,2.021387577E0
2.219435051E1,-1.480462551E0,3.336299896E0,2.021387577E0
2.221435051E1,-1.993750036E-1,2.417249918E0,1.578362465E0
2.223435051E1,-1.993750036E-1,2.417249918E0,1.578362465E0
2.225435051E1,-2.041874975E-1,1.797124982E0,7.720624804E-1
2.227435051E1,-2.041874975E-1,1.797124982E0,7.720624804E-1
2.229435051E1,-2.041874975E-1,1.797124982E0,7.720624804E-1
2.231435051E1,2.425500005E-1,1.034549952E0,-6.338749826E-2
2.233435051E1,2.425500005E-1,1.034549952E0,-6.338749826E-2
2.235435051E1,2.425500005E-1,1.034549952E0,-6.338749826E-2
2.237435051E1,2.425500005E-1,1.034549952E0,-6.338749826E-2
2.239435051E1,2.425500005E-1,1.034549952E0,-6.338749826E-2
2.241435051E1,2.425500005E-1,1.034549952E0,-6.338749826E-2
2.243435051E1,2.425500005E-1,1.034549952E0,-6.338749826E-2
2.245435051E1,2.425500005E-1,1.034549952E0,-6.338749826E-2
2.247435051E1,2.425500005E-1,1.034549952E0,-6.338749826E-2
2.249435051E1,2.425500005E-1,1.034549952E0,-6.338749826E-2
2.251435051E1,2.425500005E-1,1.034549952E0,-6.338749826E-2
2.253435051E1,2.425500005E-1,1.034549952E0,-6.338749826E-2
2.255435051E1,2.641375065E-1,-5.524749756E-1,-7.331500053E-1
2.257435051E1,2.641375065E-1,-5.524749756E-1,-7.331500053E-1
2.259435051E1,1.337874979E-1,4.115374982E-1,1.758625060E-1
2.261435051E1,1.337874979E-1,4.115374982E-1,1.758625060E-1
2.263435051E1,1.337874979E-1,4.115374982E-1,1.758625060E-1
2.265435051E1,9.070875049E-1,1.829025030E0,1.394112468E0
2.267435051E1,9.070875049E-1,1.829025030E0,1.394112468E0
2.269435051E1,1.139187455E0,2.792074919E0,3.107912540E0
2.271435051E1,1.139187455E0,2.792074919E0,3.107912540E0
2.273435051E1,1.139187455E0,2.792074919E0,3.107912540E0
2.275435051E1,1.139187455E0,2.792074919E0,3.107912540E0
2.277435051E1,1.139187455E0,2.792074919E0,3.107912540E0
2.279435051E1,-5.596249923E-2,1.308862448E0,1.935724974E0
2.281435051E1,-5.596249923E-2,1.308862448E0,1.935724974E0
2.283435051E1,-5.596249923E-2,1.308862448E0,1.935724974E0
2.285435051E1,-5.596249923E-2,1.308862448E0,1.935724974E0
2.287435051E1,-5.596249923E-2,1.308862448E0,1.935724974E0
2.289435051E1,1.161874980E-1,-1.239012480E0,-9.211124778E-1
2.291435051E1,1.161874980E-1,-1.239012480E0,-9.211124778E-1
2.293435051E1,-2.704625130E-1,-2.317425013E0,-1.527762532E0
2.295435051E1,-2.704625130E-1,-2.317425013E0,-1.527762532E0
2.297435051E1,8.442500234E-2,-2.632712603E0,-1.335124969E0
2.299435051E1,8.442500234E-2,-2.632712603E0,-1.335124969E0
2.301435051E1,8.442500234E-2,-2.632712603E0,-1.335124969E0
2.303435051E1,8.186749816E-1,-2.228462458E0,-9.186375141E-1
2.305435051E1,8.186749816E-1,-2.228462458E0,-9.186375141E-1
2.307435051E1,8.186749816E-1,-2.228462458E0,-9.186375141E-1
2.309435051E1,8.186749816E-1,-2.228462458E0,-9.186375141E-1
2.311435051E1,8.186749816E-1,-2.228462458E0,-9.186375141E-1
2.313435051E1,5.389999971E-2,-2.353037596E0,-4.839999974E-1
2.315435051E1,5.389999971E-2,-2.353037596E0,-4.839999974E-1
2.317435051E1,-3.713875115E-1,-2.107599974E0,-3.386625051E-1
2.319435051E1,-3.713875115E-1,-2.107599974E0,-3.386625051E-1
2.321435051E1,-3.713875115E-1,-2.107599974E0,-3.386625051E-1
2.323435051E1,-3.713875115E-1,-2.107599974E0,-3.386625051E-1
2.325435051E1,-3.713875115E-1,-2.107599974E0,-3.386625051E-1
2.327435051E1,-4.709374905E-1,8.714749813E-1,4.727250040E-1
2.329435051E1,-4.709374905E-1,8.714749813E-1,4.727250040E-1
2.331435051E1,-8.892124891E-1,2.035412550E0,1.041975021E0
2.333435051E1,-8.892124891E-1,2.035412550E0,1.041975021E0
2.335435051E1,-8.892124891E-1,2.035412550E0,1.041975021E0
2.337435051E1,-4.423374832E-1,2.954462528E0,1.388749957E0
2.339435051E1,-4.423374832E-1,2.954462528E0,1.388749957E0
2.341435051E1,-4.423374832E-1,2.954462528E0,1.388749957E0
2.343435051E1,-4.423374832E-1,2.954462528E0,1.388749957E0
2.345435051E1,-4.423374832E-1,2.954462528E0,1.388749957E0
2.347435051E1,-4.423374832E-1,2.954462528E0,1.388749957E0
2.349435051E1,-4.423374832E-1,2.954462528E0,1.388749957E0
2.351435051E1,-2.285249978E-1,1.704312444E0,4.639250040E-1
2.353435051E1,-2.285249978E-1,1.704312444E0,4.639250040E-1
2.355435051E1,-2.285249978E-1,1.704312444E0,4.639250040E-1
2.357435051E1,-2.285249978E-1,1.704312444E0,4.639250040E-1
2.359435051E1,-2.285249978E-1,1.704312444E0,4.639250040E-1
2.361435051E1,-1.432749987E0,-1.126125008E-1,-1.320962548E0
2.363435051E1,-1.432749987E0,-1.126125008E-1,-1.320962548E0
2.365435051E1,-1.985362530E0,-1.587849975E0,-2.377237558E0
2.367435051E1,-1.985362530E0,-1.587849975E0,-2.377237558E0
2.369435051E1,-1.985362530E0,-1.587849975E0,-2.377237558E0
2.371435051E1,2.843500078E-1,-2.583487511E0,-2.853399992E0
2.373435051E1,2.843500078E-1,-2.583487511E0,-2.853399992E0
2.375435051E1,6.144874692E-1,-1.646700025E0,-1.637899995E0
2.377435051E1,6.144874692E-1,-1.646700025E0,-1.637899995E0
2.379435051E1,6.144874692E-1,-1.646700025E0,-1.637899995E0
2.381435051E1,6.144874692E-1,-1.646700025E0,-1.637899995E0
2.383435051E1,6.144874692E-1,-1.646700025E0,-1.637899995E0
2.385435051E1,8.377875090E-1,1.390125006E-1,1.262249947E-1
2.387435051E1,8.377875090E-1,1.390125006E-1,1.262249947E-1
2.389435051E1,1.350525022E0,1.669387460E0,1.422437549E0
2.391435051E1,1.350525022E0,1.669387460E0,1.422437549E0
2.393435051E1,1.350525022E0,1.669387460E0,1.422437549E0
2.395435051E1,7.842999697E-1,2.570425034E0,3.018125057E0
2.397435051E1,7.842999697E-1,2.570425034E0,3.018125057E0
2.399435051E1,-2.736249939E-2,1.889937520E0,2.494524956E0
2.401435051E1,-2.736249939E-2,1.889937520E0,2.494524956E0
2.403435051E1,-2.736249939E-2,1.889937520E0,2.494524956E0
2.405435051E1,-2.736249939E-2,1.889937520E0,2.494524956E0
2.407435051E1,-2.736249939E-2,1.889937520E0,2.494524956E0
2.409435051E1,2.887500077E-2,-1.187999994E-1,2.111999989E-1
2.411435051E1,2.887500077E-2,-1.187999994E-1,2.111999989E-1
2.413435051E1,2.887500077E-2,-1.187999994E-1,2.111999989E-1
2.415435051E1,2.887500077E-2,-1.187999994E-1,2.111999989E-1
2.417435051E1,2.887500077E-2,-1.187999994E-1,2.111999989E-1
2.419435051E1,1.483625025E-1,-2.421237469E0,-1.331962466E0
2.421435051E1,1.483625025E-1,-2.421237469E0,-1.331962466E0
2.423435051E1,9.702000022E-1,-2.259812593E0,-1.001274943E0
2.425435051E1,9.702000022E-1,-2.259812593E0,-1.001274943E0
2.427435051E1,9.702000022E-1,-2.259812593E0,-1.001274943E0
2.429435051E1,9.702000022E-1,-2.259812593E0,-1.001274943E0
2.431435051E1,9.702000022E-1,-2.259812593E0,-1.001274943E0
2.433435051E1,7.108749747E-1,-1.557325006E0,-4.036999941E-1
2.435435051E1,7.108749747E-1,-1.557325006E0,-4.036999941E-1
2.437435051E1,1.938750036E-2,-1.878250003E0,-4.324375093E-1
2.439435051E1,1.938750036E-2,-1.878250003E0,-4.324375093E-1
2.441435051E1,1.938750036E-2,-1.878250003E0,-4.324375093E-1
2.443435051E1,1.938750036E-2,-1.878250003E0,-4.324375093E-1
2.445435051E1,1.938750036E-2,-1.878250003E0,-4.324375093E-1
2.447435051E1,1.938750036E-2,-1.878250003E0,-4.324375093E-1
2.449435051E1,1.938750036E-2,-1.878250003E0,-4.324375093E-1
2.451435051E1,1.938750036E-2,-1.878250003E0,-4.324375093E-1
2.453435051E1,1.938750036E-2,-1.878250003E0,-4.324375093E-1
2.455435051E1,1.938750036E-2,-1.878250003E0,-4.324375093E-1
2.457435051E1,-1.171224952E0,2.422199965E0,9.433875084E-1
2.459435051E1,-1.171224952E0,2.422199965E0,9.433875084E-1
2.461435051E1,-1.171224952E0,2.422199965E0,9.433875084E-1
2.463435051E1,-1.171224952E0,2.422199965E0,9.433875084E-1
2.465435051E1,-1.171224952E0,2.422199965E0,9.433875084E-1
2.467435051E1,-1.836999953E-1,2.439937592E0,8.677625060E-1
2.469435051E1,-1.836999953E-1,2.439937592E0,8.677625060E-1
2.471435051E1,-1.836999953E-1,2.439937592E0,8.677625060E-1
2.473435051E1,-1.836999953E-1,2.439937592E0,8.677625060E-1
2.475435051E1,-1.836999953E-1,2.439937592E0,8.677625060E-1
2.477435051E1,-6.466624737E-1,1.338837504E0,-2.014375031E-1
2.479435051E1,-6.466624737E-1,1.338837504E0,-2.014375031E-1
2.481435051E1,-3.045625091E-1,8.306375146E-1,-2.396624982E-1
2.483435051E1,-3.045625091E-1,8.306375146E-1,-2.396624982E-1
2.485435051E1,-3.045625091E-1,8.306375146E-1,-2.396624982E-1
2.487435051E1,-3.045625091E-1,8.306375146E-1,-2.396624982E-1
2.489435051E1,-3.045625091E-1,8.306375146E-1,-2.396624982E-1
2.491435051E1,-6.759499907E-1,-1.510437489E0,-2.808024883E0
2.493435051E1,-6.759499907E-1,-1.510437489E0,-2.808024883E0
2.495435051E1,2.857249975E-1,-2.137300014E0,-2.990624905E0
2.497435051E1,2.857249975E-1,-2.137300014E0,-2.990624905E0
2.499435051E1,2.857249975E-1,-2.137300014E0,-2.990624905E0
2.501435051E1,5.115000010E-1,-9.448999763E-1,-1.416387439E0
2.503435051E1,5.115000010E-1,-9.448999763E-1,-1.416387439E0
2.505435051E1,1.275999993E-1,-1.079374999E-1,-2.488749921E-1
2.507435051E1,1.275999993E-1,-1.079374999E-1,-2.488749921E-1
2.509435051E1,1.275999993E-1,-1.079374999E-1,-2.488749921E-1
2.511435051E1,1.275999993E-1,-1.079374999E-1,-2.488749921E-1
2.513435051E1,1.275999993E-1,-1.079374999E-1,-2.488749921E-1
2.515435051E1,6.973999739E-1,2.407350063E0,2.804450035E0
2.517435051E1,6.973999739E-1,2.407350063E0,2.804450035E0
2.519435051E1,6.973999739E-1,2.407350063E0,2.804450035E0
2.521435051E1,6.973999739E-1,2.407350063E0,2.804450035E0
2.523435051E1,6.973999739E-1,2.407350063E0,2.804450035E0
2.525435051E1,-3.478749841E-2,1.458050013E0,2.431137562E0
2.527435051E1,-3.478749841E-2,1.458050013E0,2.431137562E0
2.529435051E1,2.366375029E-1,5.279999971E-1,1.031250000E0
2.531435051E1,2.366375029E-1,5.279999971E-1,1.031250000E0
2.533435051E1,2.366375029E-1,5.279999971E-1,1.031250000E0
2.535435051E1,2.366375029E-1,5.279999971E-1,1.031250000E0
2.537435051E1,2.366375029E-1,5.279999971E-1,1.031250000E0
2.539435051E1,2.398000062E-1,-1.631299973E0,-1.334025025E0
2.541435051E1,2.398000062E-1,-1.631299973E0,-1.334025025E0
2.543435051E1,2.398000062E-1,-1.631299973E0,-1.334025025E0
2.545435051E1,2.398000062E-1,-1.631299973E0,-1.334025025E0
2.547435051E1,2.398000062E-1,-1.631299973E0,-1.334025025E0
2.549435051E1,3.760625124E-1,-1.890212536E0,-9.172624946E-1
2.551435051E1,3.760625124E-1,-1.890212536E0,-9.172624946E-1
2.553435051E1,3.760625124E-1,-1.890212536E0,-9.172624946E-1
2.555435051E1,3.760625124E-1,-1.890212536E0,-9.172624946E-1
2.557435051E1,3.760625124E-1,-1.890212536E0,-9.172624946E-1
2.559435051E1,3.760625124E-1,-1.890212536E0,-9.172624946E-1
2.561435051E1,3.760625124E-1,-1.890212536E0,-9.172624946E-1
2.563435051E1,-2.765125036E-1,-1.326050043E0,-2.881999910E-1
2.565435051E1,-2.765125036E-1,-1.326050043E0,-2.881999910E-1
2.567435051E1,-2.765125036E-1,-1.326050043E0,-2.881999910E-1
2.569435051E1,-2.765125036E-1,-1.326050043E0,-2.881999910E-1
2.571435051E1,-2.765125036E-1,-1.326050043E0,-2.881999910E-1
2.573435051E1,3.748250008E-1,-3.878875077E-1,-2.440624982E-1
2.575435051E1,3.748250008E-1,-3.878875077E-1,-2.440624982E-1
2.577435051E1,-4.316124916E-1,7.895249724E-1,3.339875042E-1
2.579435051E1,-4.316124916E-1,7.895249724E-1,3.339875042E-1
2.581435051E1,-4.316124916E-1,7.895249724E-1,3.339875042E-1
2.583435051E1,-1.150324941E0,1.618237495E0,6.182000041E-1
2.585435051E1,-1.150324941E0,1.618237495E0,6.182000041E-1
2.587435051E1,-1.150324941E0,1.618237495E0,6.182000041E-1
2.589435051E1,-1.150324941E0,1.618237495E0,6.182000041E-1
2.591435051E1,-1.150324941E0,1.618237495E0,6.182000041E-1
2.593435051E1,-1.150324941E0,1.618237495E0,6.182000041E-1
2.595435051E1,-1.150324941E0,1.618237495E0,6.182000041E-1
2.597435051E1,-7.845749855E-1,1.935312510E0,7.570750117E-1
2.599435051E1,-7.845749855E-1,1.935312510E0,7.570750117E-1
2.601435051E1,-6.342874765E-1,1.605175018E0,6.254875064E-1
2.603435051E1,-6.342874765E-1,1.605175018E0,6.254875064E-1
2.605435051E1,-6.342874765E-1,1.605175018E0,6.254875064E-1
2.607435051E1,-2.111999989E-1,9.337624907E-1,3.478749841E-2
2.609435051E1,-2.111999989E-1,9.337624907E-1,3.478749841E-2
2.611435051E1,-1.384899974E0,-7.493750006E-2,-1.381600022E0
2.613435051E1,-1.384899974E0,-7.493750006E-2,-1.381600022E0
2.615435051E1,-1.384899974E0,-7.493750006E-2,-1.381600022E0
2.615435051E1,-1.289199948E0,-1.168062449E0,-2.448187590E0
2.619435051E1,-1.289199948E0,-1.168062449E0,-2.448187590E0
2.621435051E1,8.669375181E-1,-2.138949871E0,-3.016200066E0
2.623435051E1,8.669375181E-1,-2.138949871E0,-3.016200066E0
2.625435051E1,8.669375181E-1,-2.138949871E0,-3.016200066E0
2.627435051E1,8.669375181E-1,-2.138949871E0,-3.016200066E0
2.629435051E1,8.669375181E-1,-2.138949871E0,-3.016200066E0
2.631435051E1,3.355000168E-2,-2.682625055E-1,-3.122625053E-1
2.633435051E1,3.355000168E-2,-2.682625055E-1,-3.122625053E-1
2.635435051E1,9.561749697E-1,8.084999919E-1,7.341125011E-1
2.637435051E1,9.561749697E-1,8.084999919E-1,7.341125011E-1
2.639435051E1,9.561749697E-1,8.084999919E-1,7.341125011E-1
2.641435051E1,9.561749697E-1,8.084999919E-1,7.341125011E-1
2.643435051E1,9.561749697E-1,8.084999919E-1,7.341125011E-1
2.645435051E1,9.561749697E-1,8.084999919E-1,7.341125011E-1
2.647435051E1,9.561749697E-1,8.084999919E-1,7.341125011E-1
2.649435051E1,9.048874974E-1,1.003062487E0,1.917437434E0
2.651435051E1,9.048874974E-1,1.003062487E0,1.917437434E0
2.653435051E1,9.048874974E-1,1.003062487E0,1.917437434E0
2.655435051E1,6.612374783E-1,1.676124930E-1,8.318749666E-1
2.657435051E1,6.612374783E-1,1.676124930E-1,8.318749666E-1
2.659435051E1,6.612374783E-1,1.676124930E-1,8.318749666E-1
2.661435051E1,6.612374783E-1,1.676124930E-1,8.318749666E-1
2.663435051E1,6.612374783E-1,1.676124930E-1,8.318749666E-1
2.665435051E1,6.612374783E-1,1.676124930E-1,8.318749666E-1
2.667435051E1,6.612374783E-1,1.676124930E-1,8.318749666E-1
2.669435051E1,-1.082125008E-1,-1.491050005E0,-7.324625254E-1
2.671435051E1,-1.082125008E-1,-1.491050005E0,-7.324625254E-1
2.673435051E1,-1.082125008E-1,-1.491050005E0,-7.324625254E-1
2.675435051E1,-1.082125008E-1,-1.491050005E0,-7.324625254E-1
2.677435051E1,-1.082125008E-1,-1.491050005E0,-7.324625254E-1
2.679435051E1,6.836500168E-1,-1.700049996E0,-5.961999893E-1
2.681435051E1,6.836500168E-1,-1.700049996E0,-5.961999893E-1
2.683435051E1,2.275625020E-1,-1.593075037E0,-4.101625085E-1
2.685435051E1,2.275625020E-1,-1.593075037E0,-4.101625085E-1
2.687435051E1,2.275625020E-1,-1.593075037E0,-4.101625085E-1
2.689435051E1,-1.948374957E-1,-2.402537584E0,-7.833374739E-1
2.691435051E1,-1.948374957E-1,-2.402537584E0,-7.833374739E-1
2.693435051E1,-1.948374957E-1,-2.402537584E0,-7.833374739E-1
2.695435051E1,-1.948374957E-1,-2.402537584E0,-7.833374739E-1
2.697435051E1,-1.948374957E-1,-2.402537584E0,-7.833374739E-1
2.699435051E1,-1.948374957E-1,-2.402537584E0,-7.833374739E-1
2.701435051E1,-1.948374957E-1,-2.402537584E0,-7.833374739E-1
2.703435051E1,-8.218374848E-1,1.873024940E0,9.277125001E-1
2.705435051E1,-8.218374848E-1,1.873024940E0,9.277125001E-1
2.707435051E1,-1.041149974E0,2.574825048E0,1.254274964E0
2.709435051E1,-1.041149974E0,2.574825048E0,1.254274964E0
2.711435051E1,-1.041149974E0,2.574825048E0,1.254274964E0
2.713435051E1,2.232999951E-1,2.776400089E0,1.846487522E0
2.715435051E1,2.232999951E-1,2.776400089E0,1.846487522E0
2.717435051E1,1.649999917E-1,2.192987442E0,1.410200000E0
2.719435051E1,1.649999917E-1,2.192987442E0,1.410200000E0
2.721435051E1,1.649999917E-1,2.192987442E0,1.410200000E0
2.723435051E1,1.649999917E-1,2.192987442E0,1.410200000E0
2.725435051E1,1.649999917E-1,2.192987442E0,1.410200000E0
2.727435051E1,-4.386249930E-2,1.266237497E0,4.324375093E-1
2.729435051E1,-4.386249930E-2,1.266237497E0,4.324375093E-1
2.731435051E1,-4.386249930E-2,1.266237497E0,4.324375093E-1
2.733435051E1,-4.386249930E-2,1.266237497E0,4.324375093E-1
2.735435051E1,-4.386249930E-2,1.266237497E0,4.324375093E-1
2.737435051E1,-1.229387522E0,-9.960500002E-1,-2.533987522E0
2.739435051E1,-1.229387522E0,-9.960500002E-1,-2.533987522E0
2.741435051E1,-1.229387522E0,-9.960500002E-1,-2.533987522E0
2.743435051E1,-1.229387522E0,-9.960500002E-1,-2.533987522E0
2.745435051E1,-1.229387522E0,-9.960500002E-1,-2.533987522E0
2.747435051E1,-1.229387522E0,-9.960500002E-1,-2.533987522E0
2.749435051E1,-1.229387522E0,-9.960500002E-1,-2.533987522E0
2.751435051E1,-3.176249936E-2,-8.102874756E-1,-5.652624965E-1
2.753435051E1,-3.176249936E-2,-8.102874756E-1,-5.652624965E-1
2.755435051E1,4.503124952E-1,-3.244999796E-2,2.250874937E-1
2.757435051E1,4.503124952E-1,-3.244999796E-2,2.250874937E-1
2.759435051E1,4.503124952E-1,-3.244999796E-2,2.250874937E-1
2.761435051E1,1.200924993E0,1.410612464E0,1.697162509E0
2.763435051E1,1.200924993E0,1.410612464E0,1.697162509E0
2.765435051E1,1.200924993E0,1.410612464E0,1.697162509E0
2.767435051E1,1.200924993E0,1.410612464E0,1.697162509E0
2.769435051E1,1.200924993E0,1.410612464E0,1.697162509E0
2.771435051E1,8.084999770E-2,1.521574974E0,2.487649918E0
2.773435051E1,8.084999770E-2,1.521574974E0,2.487649918E0
2.775435051E1,1.314499974E-1,5.736500025E-1,1.282325029E0
2.777435051E1,1.314499974E-1,5.736500025E-1,1.282325029E0
2.779435051E1,1.314499974E-1,5.736500025E-1,1.282325029E0
2.781435051E1,1.314499974E-1,5.736500025E-1,1.282325029E0
2.783435051E1,1.314499974E-1,5.736500025E-1,1.282325029E0
2.785435051E1,9.253749996E-2,-1.436462522E0,-1.069337487E0
2.787435051E1,9.253749996E-2,-1.436462522E0,-1.069337487E0
2.789435051E1,-4.111250043E-1,-2.035549879E0,-1.326874971E0
2.791435051E1,-4.111250043E-1,-2.035549879E0,-1.326874971E0
2.793435051E1,-4.111250043E-1,-2.035549879E0,-1.326874971E0
2.795435051E1,-4.207500070E-2,-2.141974926E0,-1.084187508E0
2.797435051E1,-4.207500070E-2,-2.141974926E0,-1.084187508E0
2.799435051E1,-4.207500070E-2,-2.141974926E0,-1.084187508E0
2.801435051E1,-4.207500070E-2,-2.141974926E0,-1.084187508E0
2.803435051E1,-4.207500070E-2,-2.141974926E0,-1.084187508E0
2.805435051E1,-4.207500070E-2,-2.141974926E0,-1.084187508E0
2.807435051E1,-4.207500070E-2,-2.141974926E0,-1.084187508E0
2.809435051E1,4.441250116E-2,-2.049437523E0,-5.244249701E-1
2.811435051E1,4.441250116E-2,-2.049437523E0,-5.244249701E-1
2.813435051E1,-8.910000324E-2,-2.043112516E0,-5.713124871E-1
2.815435051E1,-8.910000324E-2,-2.043112516E0,-5.713124871E-1
2.817435051E1,-8.910000324E-2,-2.043112516E0,-5.713124871E-1
2.819435051E1,4.174500108E-1,-5.724124908E-1,-2.253624946E-1
2.821435051E1,4.174500108E-1,-5.724124908E-1,-2.253624946E-1
2.823435051E1,-3.679499924E-1,1.000174999E0,6.375874877E-1
2.825435051E1,-3.679499924E-1,1.000174999E0,6.375874877E-1
2.827435051E1,-3.679499924E-1,1.000174999E0,6.375874877E-1
2.829435051E1,-3.679499924E-1,1.000174999E0,6.375874877E-1
2.831435051E1,-3.679499924E-1,1.000174999E0,6.375874877E-1
2.833435051E1,-7.077124715E-1,2.763750076E0,1.472625017E0
2.835435051E1,-7.077124715E-1,2.763750076E0,1.472625017E0
2.837435051E1,-7.077124715E-1,2.763750076E0,1.472625017E0
2.839435051E1,-7.077124715E-1,2.763750076E0,1.472625017E0
2.841435051E1,-7.077124715E-1,2.763750076E0,1.472625017E0
2.843435051E1,-7.077124715E-1,2.763750076E0,1.472625017E0
2.845435051E1,-7.077124715E-1,2.763750076E0,1.472625017E0
2.847435051E1,-7.077124715E-1,2.763750076E0,1.472625017E0
2.849435051E1,-7.077124715E-1,2.763750076E0,1.472625017E0
2.851435051E1,-7.077124715E-1,2.763750076E0,1.472625017E0
2.853435051E1,-7.077124715E-1,2.763750076E0,1.472625017E0
2.855435051E1,-7.077124715E-1,2.763750076E0,1.472625017E0
2.857435051E1,-3.434749842E-1,-2.173874974E-1,-1.302675009E0
2.859435051E1,-3.434749842E-1,-2.173874974E-1,-1.302675009E0
2.861435051E1,-5.707625151E-1,-1.004575014E0,-1.909737468E0
2.863435051E1,-5.707625151E-1,-1.004575014E0,-1.909737468E0
2.865435051E1,-5.707625151E-1,-1.004575014E0,-1.909737468E0
2.867435051E1,6.355249882E-1,-2.287450075E0,-2.925999880E0
2.869435051E1,6.355249882E-1,-2.287450075E0,-2.925999880E0
2.871435051E1,6.355249882E-1,-2.287450075E0,-2.925999880E0
2.873435051E1,6.355249882E-1,-2.287450075E0,-2.925999880E0
2.875435051E1,6.355249882E-1,-2.287450075E0,-2.925999880E0
2.877435051E1,7.442874908E-1,-3.795000017E-1,-2.590500116E-1
2.879435051E1,7.442874908E-1,-3.795000017E-1,-2.590500116E-1
2.881435051E1,7.442874908E-1,-3.795000017E-1,-2.590500116E-1
2.883435051E1,7.442874908E-1,-3.795000017E-1,-2.590500116E-1
2.885435051E1,7.442874908E-1,-3.795000017E-1,-2.590500116E-1
2.887435051E1,7.442874908E-1,-3.795000017E-1,-2.590500116E-1
2.889435051E1,7.442874908E-1,-3.795000017E-1,-2.590500116E-1
2.891435051E1,8.816499710E-1,2.261324883E0,2.802662373E0
2.893435051E1,8.816499710E-1,2.261324883E0,2.802662373E0
2.895435051E1,6.121500134E-1,1.602699995E0,2.274112463E0
2.897435051E1,6.121500134E-1,1.602699995E0,2.274112463E0
2.899435051E1,6.121500134E-1,1.602699995E0,2.274112463E0
2.901435051E1,-4.056249857E-1,7.970874906E-1,1.272150040E0
2.903435051E1,-4.056249857E-1,7.970874906E-1,1.272150040E0
2.905435051E1,-3.867875040E-1,9.061250091E-2,3.804624975E-1
2.907435051E1,-3.867875040E-1,9.061250091E-2,3.804624975E-1
2.909435051E1,-3.867875040E-1,9.061250091E-2,3.804624975E-1
2.911435051E1,-3.867875040E-1,9.061250091E-2,3.804624975E-1
2.913435051E1,-3.867875040E-1,9.061250091E-2,3.804624975E-1
2.915435051E1,-2.353999913E-1,-1.642575026E0,-1.089687467E0
2.917435051E1,-2.353999913E-1,-1.642575026E0,-1.089687467E0
2.919435051E1,-2.353999913E-1,-1.642575026E0,-1.089687467E0
2.921435051E1,-2.353999913E-1,-1.642575026E0,-1.089687467E0
2.923435051E1,-2.353999913E-1,-1.642575026E0,-1.089687467E0
2.925435051E1,4.905999899E-1,-2.013550043E0,-7.903500199E-1
2.927435051E1,4.905999899E-1,-2.013550043E0,-7.903500199E-1
2.929435051E1,6.059625149E-1,-1.864362478E0,-4.811125100E-1
2.931435051E1,6.059625149E-1,-1.864362478E0,-4.811125100E-1
2.933435051E1,2.114749998E-1,-1.530237436E0,-1.832875013E-1
2.935435051E1,2.114749998E-1,-1.530237436E0,-1.832875013E-1
2.937435051E1,2.114749998E-1,-1.530237436E0,-1.832875013E-1
2.939435051E1,-2.425500005E-1,-1.933249950E0,-3.206500113E-1
2.941435051E1,-2.425500005E-1,-1.933249950E0,-3.206500113E-1
2.943435051E1,-2.425500005E-1,-1.933249950E0,-3.206500113E-1
2.945435051E1,-2.425500005E-1,-1.933249950E0,-3.206500113E-1
2.947435051E1,-2.425500005E-1,-1.933249950E0,-3.206500113E-1
2.949435051E1,3.588749841E-2,2.611125112E-1,1.486375034E-1
2.951435051E1,3.588749841E-2,2.611125112E-1,1.486375034E-1
2.953435051E1,3.588749841E-2,2.611125112E-1,1.486375034E-1
2.955435051E1,3.588749841E-2,2.611125112E-1,1.486375034E-1
2.957435051E1,3.588749841E-2,2.611125112E-1,1.486375034E-1
2.959435051E1,3.588749841E-2,2.611125112E-1,1.486375034E-1
2.961435051E1,3.588749841E-2,2.611125112E-1,1.486375034E-1
2.963435051E1,-4.141499996E-1,2.828787565E0,9.338999987E-1
2.965435051E1,-4.141499996E-1,2.828787565E0,9.338999987E-1
2.967435051E1,-3.627249897E-1,2.464824915E0,6.701750159E-1
2.969435051E1,-3.627249897E-1,2.464824915E0,6.701750159E-1
2.971435051E1,-3.627249897E-1,2.464824915E0,6.701750159E-1
2.973435051E1,-6.232874990E-1,1.816375017E0,2.557500079E-2
2.975435051E1,-6.232874990E-1,1.816375017E0,2.557500079E-2
2.977435051E1,-6.232874990E-1,1.816375017E0,2.557500079E-2
2.979435051E1,-6.232874990E-1,1.816375017E0,2.557500079E-2
2.981435051E1,-6.232874990E-1,1.816375017E0,2.557500079E-2
2.983435051E1,-4.302375019E-1,7.484124899E-1,-2.265999913E-1
2.985435051E1,-4.302375019E-1,7.484124899E-1,-2.265999913E-1
2.987435051E1,-1.809224963E0,-1.566125005E-1,-8.398500085E-1
2.989435051E1,-1.809224963E0,-1.566125005E-1,-8.398500085E-1
2.991435051E1,-1.809224963E0,-1.566125005E-1,-8.398500085E-1
2.993435051E1,-1.809224963E0,-1.566125005E-1,-8.398500085E-1
2.995435051E1,-1.809224963E0,-1.566125005E-1,-8.398500085E-1
2.997435051E1,7.877374887E-1,-2.109937429E0,-2.498924971E0
2.999435051E1,7.877374887E-1,-2.109937429E0,-2.498924971E0
3.001435051E1,7.877374887E-1,-2.109937429E0,-2.498924971E0
3.003435051E1,7.877374887E-1,-2.109937429E0,-2.498924971E0
3.005435051E1,7.877374887E-1,-2.109937429E0,-2.498924971E0
3.007435051E1,8.214250207E-1,-3.932499886E-1,-3.317874968E-1
3.009435051E1,8.214250207E-1,-3.932499886E-1,-3.317874968E-1
3.011435051E1,9.983875155E-1,7.451124787E-1,6.377249956E-1
3.013435051E1,9.983875155E-1,7.451124787E-1,6.377249956E-1
3.015435051E1,9.983875155E-1,7.451124787E-1,6.377249956E-1
3.017435051E1,9.983875155E-1,7.451124787E-1,6.377249956E-1
3.019435051E1,9.983875155E-1,7.451124787E-1,6.377249956E-1
3.021435051E1,5.676000118E-1,2.495074987E0,3.009049892E0
3.023435051E1,5.676000118E-1,2.495074987E0,3.009049892E0
3.025435051E1,4.587000012E-1,1.836174965E0,2.555712461E0
3.027435051E1,4.587000012E-1,1.836174965E0,2.555712461E0
3.029435051E1,4.587000012E-1,1.836174965E0,2.555712461E0
3.031435051E1,-8.291249722E-2,1.173287511E0,1.720537543E0
3.033435051E1,-8.291249722E-2,1.173287511E0,1.720537543E0
3.035435051E1,-8.291249722E-2,1.173287511E0,1.720537543E0
3.037435051E1,-8.291249722E-2,1.173287511E0,1.720537543E0
3.039435051E1,-8.291249722E-2,1.173287511E0,1.720537543E0
3.041435051E1,-8.291249722E-2,1.173287511E0,1.720537543E0
3.043435051E1,-8.291249722E-2,1.173287511E0,1.720537543E0
3.045435051E1,-8.291249722E-2,1.173287511E0,1.720537543E0
3.047435051E1,-8.291249722E-2,1.173287511E0,1.720537543E0
3.049435051E1,-8.291249722E-2,1.173287511E0,1.720537543E0
3.051435051E1,-8.291249722E-2,1.173287511E0,1.720537543E0
3.053435051E1,-8.291249722E-2,1.173287511E0,1.720537543E0
3.055435051E1,5.033875108E-1,-1.624287486E0,-1.008424997E0
3.057435051E1,5.033875108E-1,-1.624287486E0,-1.008424997E0
3.059435051E1,2.712875009E-1,-1.135475039E0,-6.271374822E-1
3.061435051E1,2.712875009E-1,-1.135475039E0,-6.271374822E-1
3.063435051E1,2.712875009E-1,-1.135475039E0,-6.271374822E-1
3.065435051E1,2.712875009E-1,-1.135475039E0,-6.271374822E-1
3.067435051E1,2.712875009E-1,-1.135475039E0,-6.271374822E-1
3.069435051E1,2.712875009E-1,-1.135475039E0,-6.271374822E-1
3.071435051E1,2.712875009E-1,-1.135475039E0,-6.271374822E-1
3.073435051E1,2.712875009E-1,-1.135475039E0,-6.271374822E-1
3.075435051E1,2.712875009E-1,-1.135475039E0,-6.271374822E-1
3.077435051E1,2.712875009E-1,-1.135475039E0,-6.271374822E-1
3.079435051E1,-1.488849998E0,2.417937517E0,8.929250240E-1
3.081435051E1,-1.488849998E0,2.417937517E0,8.929250240E-1
3.083435051E1,-1.659487486E0,2.934937477E0,1.340075016E0
3.085435051E1,-1.659487486E0,2.934937477E0,1.340075016E0
3.087435051E1,-1.659487486E0,2.934937477E0,1.340075016E0
3.089435051E1,-9.953625202E-1,2.643712521E0,1.555124998E0
3.091435051E1,-9.953625202E-1,2.643712521E0,1.555124998E0
3.093435051E1,-1.836999953E-1,2.006675005E0,1.597062469E0
3.095435051E1,-1.836999953E-1,2.006675005E0,1.597062469E0
3.097435051E1,-1.836999953E-1,2.006675005E0,1.597062469E0
3.099435051E1,-1.836999953E-1,2.006675005E0,1.597062469E0
3.101435051E1,-1.836999953E-1,2.006675005E0,1.597062469E0
3.103435051E1,-3.686375022E-1,9.880750179E-1,-2.435124964E-1
3.105435051E1,-3.686375022E-1,9.880750179E-1,-2.435124964E-1
3.107435051E1,-3.686375022E-1,9.880750179E-1,-2.435124964E-1
3.109435051E1,-3.686375022E-1,9.880750179E-1,-2.435124964E-1
3.111435051E1,-3.686375022E-1,9.880750179E-1,-2.435124964E-1
3.113435051E1,-1.320962548E0,5.040749907E-1,-1.403462529E0
3.115435051E1,-1.320962548E0,5.040749907E-1,-1.403462529E0
3.117435051E1,-1.840987444E0,7.265499830E-1,-1.099174976E0
3.119435051E1,-1.840987444E0,7.265499830E-1,-1.099174976E0
3.121435051E1,-1.840987444E0,7.265499830E-1,-1.099174976E0
3.123435051E1,-1.840987444E0,7.265499830E-1,-1.099174976E0
3.125435051E1,-1.840987444E0,7.265499830E-1,-1.099174976E0
3.127435051E1,-9.220749736E-1,6.605499983E-1,-1.565024972E0
3.129435051E1,-9.220749736E-1,6.605499983E-1,-1.565024972E0
3.131435051E1,-1.251387477E0,1.046512485E0,-1.159399986E0
3.133435051E1,-1.251387477E0,1.046512485E0,-1.159399986E0
3.135435051E1,-1.251387477E0,1.046512485E0,-1.159399986E0
3.137435051E1,-8.415000141E-2,9.377499819E-1,-2.872374952E-1
3.139435051E1,-8.415000141E-2,9.377499819E-1,-2.872374952E-1
3.141435051E1,-8.415000141E-2,9.377499819E-1,-2.872374952E-1
3.143435051E1,-8.415000141E-2,9.377499819E-1,-2.872374952E-1
3.145435051E1,-8.415000141E-2,9.377499819E-1,-2.872374952E-1
3.147435051E1,-8.415000141E-2,9.377499819E-1,-2.872374952E-1
3.149435051E1,-8.415000141E-2,9.377499819E-1,-2.872374952E-1
3.151435051E1,-8.415000141E-2,9.377499819E-1,-2.872374952E-1
3.153435051E1,-8.415000141E-2,9.377499819E-1,-2.872374952E-1
3.155435051E1,-8.415000141E-2,9.377499819E-1,-2.872374952E-1
3.157435051E1,-8.415000141E-2,9.377499819E-1,-2.872374952E-1
3.159435051E1,-8.415000141E-2,9.377499819E-1,-2.872374952E-1
3.161435051E1,8.157874942E-1,7.953000069E-1,1.745287538E0
3.163435051E1,8.157874942E-1,7.953000069E-1,1.745287538E0
3.165435051E1,5.143874884E-1,8.151000142E-1,1.117324948E0
3.167435051E1,5.143874884E-1,8.151000142E-1,1.117324948E0
3.169435051E1,5.143874884E-1,8.151000142E-1,1.117324948E0
3.171435051E1,5.143874884E-1,8.151000142E-1,1.117324948E0
3.173435051E1,5.143874884E-1,8.151000142E-1,1.117324948E0
3.175435051E1,5.143874884E-1,8.151000142E-1,1.117324948E0
3.177435051E1,5.143874884E-1,8.151000142E-1,1.117324948E0
3.179435051E1,5.143874884E-1,8.151000142E-1,1.117324948E0
3.181435051E1,5.143874884E-1,8.151000142E-1,1.117324948E0
3.183435051E1,5.143874884E-1,8.151000142E-1,1.117324948E0
3.185435051E1,5.582499877E-2,7.247624993E-1,-1.595962524E0
3.187435051E1,5.582499877E-2,7.247624993E-1,-1.595962524E0
3.189435051E1,1.333750039E-2,8.314625025E-1,-1.941087484E0
3.191435051E1,1.333750039E-2,8.314625025E-1,-1.941087484E0
3.193435051E1,1.333750039E-2,8.314625025E-1,-1.941087484E0
3.195435051E1,-1.266787529E0,1.848687530E0,-1.863537431E0
3.197435051E1,-1.266787529E0,1.848687530E0,-1.863537431E0
3.199435051E1,-2.561074972E0,2.738312483E0,-1.402912498E0
3.201435051E1,-2.561074972E0,2.738312483E0,-1.402912498E0
3.203435051E1,-2.572212458E0,2.624049902E0,-7.739874721E-1
3.205435051E1,-2.572212458E0,2.624049902E0,-7.739874721E-1
3.207435051E1,-2.572212458E0,2.624049902E0,-7.739874721E-1
3.209435051E1,-3.075875044E0,2.417662382E0,-1.351625025E-1
3.211435051E1,-3.075875044E0,2.417662382E0,-1.351625025E-1
3.213435051E1,-3.075875044E0,2.417662382E0,-1.351625025E-1
3.215435051E1,-3.075875044E0,2.417662382E0,-1.351625025E-1
3.217435051E1,-3.075875044E0,2.417662382E0,-1.351625025E-1
3.219435051E1,-1.989624947E-1,3.244999796E-2,1.141800046E0
3.221435051E1,-1.989624947E-1,3.244999796E-2,1.141800046E0
3.223435051E1,-1.989624947E-1,3.244999796E-2,1.141800046E0
3.225435051E1,-1.989624947E-1,3.244999796E-2,1.141800046E0
3.227435051E1,-1.989624947E-1,3.244999796E-2,1.141800046E0
3.229435051E1,-1.989624947E-1,3.244999796E-2,1.141800046E0
3.231435051E1,-1.989624947E-1,3.244999796E-2,1.141800046E0
3.233435051E1,1.584412456E0,-1.556637526E0,1.339387536E0
3.235435051E1,1.584412456E0,-1.556637526E0,1.339387536E0
3.237435051E1,9.534249902E-1,-1.039775014E0,7.869125009E-1
3.239435051E1,9.534249902E-1,-1.039775014E0,7.869125009E-1
3.241435051E1,9.534249902E-1,-1.039775014E0,7.869125009E-1
3.243435051E1,9.534249902E-1,-1.039775014E0,7.869125009E-1
3.245435051E1,9.534249902E-1,-1.039775014E0,7.869125009E-1
3.247435051E1,9.534249902E-1,-1.039775014E0,7.869125009E-1
3.249435051E1,9.534249902E-1,-1.039775014E0,7.869125009E-1
3.251435051E1,9.534249902E-1,-1.039775014E0,7.869125009E-1
3.253435051E1,9.534249902E-1,-1.039775014E0,7.869125009E-1
3.255435051E1,9.534249902E-1,-1.039775014E0,7.869125009E-1
3.257435051E1,-1.704725027E0,1.409787536E0,-1.467949986E0
3.259435051E1,-1.704725027E0,1.409787536E0,-1.467949986E0
3.261435051E1,-1.704725027E0,1.409787536E0,-1.467949986E0
3.263435051E1,-1.704725027E0,1.409787536E0,-1.467949986E0
3.265435051E1,-1.704725027E0,1.409787536E0,-1.467949986E0
3.267435051E1,-2.405012369E0,2.536737442E0,-1.925412536E0
3.269435051E1,-2.405012369E0,2.536737442E0,-1.925412536E0
3.271435051E1,-1.792587519E0,1.930912495E0,-1.212612510E0
3.273435051E1,-1.792587519E0,1.930912495E0,-1.212612510E0
3.275435051E1,-1.792587519E0,1.930912495E0,-1.212612510E0
3.277435051E1,-1.792587519E0,1.930912495E0,-1.212612510E0
3.279435051E1,-1.792587519E0,1.930912495E0,-1.212612510E0
3.281435051E1,6.841999888E-1,-2.964499891E-1,6.076124907E-1
3.283435051E1,6.841999888E-1,-2.964499891E-1,6.076124907E-1
3.285435051E1,6.841999888E-1,-2.964499891E-1,6.076124907E-1
3.287435051E1,6.841999888E-1,-2.964499891E-1,6.076124907E-1
3.289435051E1,6.841999888E-1,-2.964499891E-1,6.076124907E-1
3.291435051E1,2.734600067E0,-2.287312508E0,2.803487539E0
3.293435051E1,2.734600067E0,-2.287312508E0,2.803487539E0
3.295435051E1,2.734600067E0,-2.287312508E0,2.803487539E0
3.297435051E1,2.734600067E0,-2.287312508E0,2.803487539E0
3.299435051E1,2.734600067E0,-2.287312508E0,2.803487539E0
3.301435051E1,7.470374703E-1,-6.639875174E-1,1.257437468E0
3.303435051E1,7.470374703E-1,-6.639875174E-1,1.257437468E0
3.305435051E1,1.077037454E0,-2.638624907E-1,2.087250054E-1
3.307435051E1,1.077037454E0,-2.638624907E-1,2.087250054E-1
3.309435051E1,5.755749941E-1,4.005374908E-1,-7.345250249E-1
3.311435051E1,5.755749941E-1,4.005374908E-1,-7.345250249E-1
3.313435051E1,5.755749941E-1,4.005374908E-1,-7.345250249E-1
3.315435051E1,-6.694874763E-1,1.378024936E0,-1.252624989E0
3.317435051E1,-6.694874763E-1,1.378024936E0,-1.252624989E0
3.319435051E1,-6.694874763E-1,1.378024936E0,-1.252624989E0
3.321435051E1,-6.694874763E-1,1.378024936E0,-1.252624989E0
3.323435051E1,-6.694874763E-1,1.378024936E0,-1.252624989E0
3.325435051E1,-8.757374883E-1,1.672549963E0,-1.079100013E0
3.327435051E1,-8.757374883E-1,1.672549963E0,-1.079100013E0
3.329435051E1,-8.757374883E-1,1.672549963E0,-1.079100013E0
3.331435051E1,-8.757374883E-1,1.672549963E0,-1.079100013E0
3.333435051E1,-8.757374883E-1,1.672549963E0,-1.079100013E0
3.335435051E1,-8.757374883E-1,1.672549963E0,-1.079100013E0
3.337435051E1,-8.757374883E-1,1.672549963E0,-1.079100013E0
3.339435051E1,-6.951999664E-1,7.888374925E-1,-2.349874973E-1
3.341435051E1,-6.951999664E-1,7.888374925E-1,-2.349874973E-1
3.343435051E1,-6.951999664E-1,7.888374925E-1,-2.349874973E-1
3.345435051E1,-6.951999664E-1,7.888374925E-1,-2.349874973E-1
3.347435051E1,-6.951999664E-1,7.888374925E-1,-2.349874973E-1
3.349435051E1,-7.343875170E-1,5.846499801E-1,-4.002625048E-1
3.351435051E1,-7.343875170E-1,5.846499801E-1,-4.002625048E-1
3.353435051E1,4.988499880E-1,-7.206375003E-1,2.495625019E-1
3.355435051E1,4.988499880E-1,-7.206375003E-1,2.495625019E-1
3.357435051E1,4.988499880E-1,-7.206375003E-1,2.495625019E-1
3.359435051E1,4.988499880E-1,-7.206375003E-1,2.495625019E-1
3.361435051E1,4.988499880E-1,-7.206375003E-1,2.495625019E-1
3.363435051E1,4.988499880E-1,-7.206375003E-1,2.495625019E-1
3.365435051E1,4.988499880E-1,-7.206375003E-1,2.495625019E-1
3.367435051E1,4.988499880E-1,-7.206375003E-1,2.495625019E-1
3.369435051E1,4.988499880E-1,-7.206375003E-1,2.495625019E-1
3.371435051E1,4.988499880E-1,-7.206375003E-1,2.495625019E-1
3.373435051E1,1.654399991E0,-2.717687368E0,1.359599948E0
3.375435051E1,1.654399991E0,-2.717687368E0,1.359599948E0
3.377435051E1,7.741250098E-2,-1.202437520E0,5.553625226E-1
3.379435051E1,7.741250098E-2,-1.202437520E0,5.553625226E-1
3.381435051E1,7.741250098E-2,-1.202437520E0,5.553625226E-1
3.383435051E1,-1.375000000E0,-1.254000068E-1,5.912499968E-3
3.385435051E1,-1.375000000E0,-1.254000068E-1,5.912499968E-3
3.387435051E1,-5.726875067E-1,-5.005000234E-1,-1.141249947E-2
3.389435051E1,-5.726875067E-1,-5.005000234E-1,-1.141249947E-2
3.391435051E1,-5.726875067E-1,-5.005000234E-1,-1.141249947E-2
3.393435051E1,-5.726875067E-1,-5.005000234E-1,-1.141249947E-2
3.395435051E1,-5.726875067E-1,-5.005000234E-1,-1.141249947E-2
3.397435051E1,-6.059625149E-1,1.292499993E-2,-1.506724954E0
3.399435051E1,-6.059625149E-1,1.292499993E-2,-1.506724954E0
3.401435051E1,-6.059625149E-1,1.292499993E-2,-1.506724954E0
3.403435051E1,-6.059625149E-1,1.292499993E-2,-1.506724954E0
3.405435051E1,-6.059625149E-1,1.292499993E-2,-1.506724954E0
3.407435051E1,4.160749912E-1,1.245749965E-1,-1.275449991E0
3.409435051E1,4.160749912E-1,1.245749965E-1,-1.275449991E0
3.411435051E1,4.160749912E-1,1.245749965E-1,-1.275449991E0
3.413435051E1,4.160749912E-1,1.245749965E-1,-1.275449991E0
3.415435051E1,4.160749912E-1,1.245749965E-1,-1.275449991E0
3.417435051E1,4.160749912E-1,1.245749965E-1,-1.275449991E0
3.419435051E1,4.160749912E-1,1.245749965E-1,-1.275449991E0
3.421435051E1,9.746000171E-1,-9.040625095E-1,1.907537460E0
3.423435051E1,9.746000171E-1,-9.040625095E-1,1.907537460E0
3.425435051E1,9.746000171E-1,-9.040625095E-1,1.907537460E0
3.427435051E1,9.746000171E-1,-9.040625095E-1,1.907537460E0
3.429435051E1,9.746000171E-1,-9.040625095E-1,1.907537460E0
3.431435051E1,5.271750093E-1,-9.696499705E-1,2.564924955E0
3.433435051E1,5.271750093E-1,-9.696499705E-1,2.564924955E0
3.435435051E1,7.925499678E-1,-9.131374955E-1,1.482524991E0
3.437435051E1,7.925499678E-1,-9.131374955E-1,1.482524991E0
3.439435051E1,7.925499678E-1,-9.131374955E-1,1.482524991E0
3.441435051E1,7.925499678E-1,-9.131374955E-1,1.482524991E0
3.443435051E1,7.925499678E-1,-9.131374955E-1,1.482524991E0
3.445435051E1,7.925499678E-1,-9.131374955E-1,1.482524991E0
3.447435051E1,7.925499678E-1,-9.131374955E-1,1.482524991E0
3.449435051E1,7.925499678E-1,-9.131374955E-1,1.482524991E0
3.451435051E1,7.925499678E-1,-9.131374955E-1,1.482524991E0
3.453435051E1,7.925499678E-1,-9.131374955E-1,1.482524991E0
3.455435051E1,-3.581874967E-1,2.367749959E-1,-1.267612457E0
3.457435051E1,-3.581874967E-1,2.367749959E-1,-1.267612457E0
3.459435051E1,-3.581874967E-1,2.367749959E-1,-1.267612457E0
3.461435051E1,-3.581874967E-1,2.367749959E-1,-1.267612457E0
3.463435051E1,-3.581874967E-1,2.367749959E-1,-1.267612457E0
3.465435051E1,-3.581874967E-1,2.367749959E-1,-1.267612457E0
3.467435051E1,-3.581874967E-1,2.367749959E-1,-1.267612457E0
3.469435051E1,-5.119125247E-1,8.750500083E-1,-8.492000103E-1
3.471435051E1,-5.119125247E-1,8.750500083E-1,-8.492000103E-1
3.473435051E1,-5.119125247E-1,8.750500083E-1,-8.492000103E-1
3.475435051E1,-5.119125247E-1,8.750500083E-1,-8.492000103E-1
3.477435051E1,-5.119125247E-1,8.750500083E-1,-8.492000103E-1
3.479435051E1,-2.121624947E-1,3.651999831E-1,-1.827374995E-1
3.481435051E1,-2.121624947E-1,3.651999831E-1,-1.827374995E-1
3.483435051E1,4.218499959E-1,-7.578999996E-1,5.799750090E-1
3.485435051E1,4.218499959E-1,-7.578999996E-1,5.799750090E-1
3.487435051E1,4.218499959E-1,-7.578999996E-1,5.799750090E-1
3.489435051E1,2.293500006E-1,-1.147987485E0,1.201337457E0
3.491435051E1,2.293500006E-1,-1.147987485E0,1.201337457E0
3.493435051E1,-1.049124971E-1,-1.167374969E0,1.683962464E0
3.495435051E1,-1.049124971E-1,-1.167374969E0,1.683962464E0
3.497435051E1,-1.049124971E-1,-1.167374969E0,1.683962464E0
3.499435051E1,-1.049124971E-1,-1.167374969E0,1.683962464E0
3.501435051E1,-1.049124971E-1,-1.167374969E0,1.683962464E0
3.503435051E1,1.476749927E-1,-1.020249963E0,1.042799950E0
3.505435051E1,1.476749927E-1,-1.020249963E0,1.042799950E0
3.507435051E1,-5.864375234E-1,-2.820124924E-1,3.070375025E-1
3.509435051E1,-5.864375234E-1,-2.820124924E-1,3.070375025E-1
3.511435051E1,-5.864375234E-1,-2.820124924E-1,3.070375025E-1
3.513435051E1,-4.860624969E-1,1.592250019E-1,-4.801499844E-1
3.515435051E1,-4.860624969E-1,1.592250019E-1,-4.801499844E-1
3.517435051E1,1.241625026E-1,3.279374838E-1,-1.182362437E0
3.519435051E1,1.241625026E-1,3.279374838E-1,-1.182362437E0
3.521435051E1,1.241625026E-1,3.279374838E-1,-1.182362437E0
3.523435051E1,1.241625026E-1,3.279374838E-1,-1.182362437E0
3.525435051E1,1.241625026E-1,3.279374838E-1,-1.182362437E0
3.527435051E1,-5.843750238E-1,1.522812486E0,-1.898737431E0
3.529435051E1,-5.843750238E-1,1.522812486E0,-1.898737431E0
3.531435051E1,-5.843750238E-1,1.522812486E0,-1.898737431E0
3.533435051E1,-5.843750238E-1,1.522812486E0,-1.898737431E0
3.535435051E1,-5.843750238E-1,1.522812486E0,-1.898737431E0
3.537435051E1,-2.596824884E0,2.956112385E0,-1.441687465E0
3.539435051E1,-2.596824884E0,2.956112385E0,-1.441687465E0
3.541435051E1,-2.596824884E0,2.956112385E0,-1.441687465E0
3.543435051E1,-2.596824884E0,2.956112385E0,-1.441687465E0
3.545435051E1,-2.596824884E0,2.956112385E0,-1.441687465E0
3.547435051E1,-2.596824884E0,2.956112385E0,-1.441687465E0
3.549435051E1,-2.596824884E0,2.956112385E0,-1.441687465E0
3.551435051E1,-3.818374872E-1,4.499000013E-1,3.502124846E-1
3.553435051E1,-3.818374872E-1,4.499000013E-1,3.502124846E-1
3.555435051E1,1.276000023E0,-8.454874754E-1,1.369500041E0
3.557435051E1,1.276000023E0,-8.454874754E-1,1.369500041E0
3.559435051E1,1.276000023E0,-8.454874754E-1,1.369500041E0
3.561435051E1,1.546875000E0,-1.305150032E0,1.884437442E0
3.563435051E1,1.546875000E0,-1.305150032E0,1.884437442E0
3.565435051E1,1.546875000E0,-1.305150032E0,1.884437442E0
3.567435051E1,1.546875000E0,-1.305150032E0,1.884437442E0
3.569435051E1,1.546875000E0,-1.305150032E0,1.884437442E0
3.571435051E1,1.546875000E0,-1.305150032E0,1.884437442E0
3.573435051E1,1.546875000E0,-1.305150032E0,1.884437442E0
3.575435051E1,1.200237513E0,-8.690000176E-1,8.823375106E-1
3.577435051E1,1.200237513E0,-8.690000176E-1,8.823375106E-1
3.579435051E1,1.200237513E0,-8.690000176E-1,8.823375106E-1
3.581435051E1,1.200237513E0,-8.690000176E-1,8.823375106E-1
3.583435051E1,1.200237513E0,-8.690000176E-1,8.823375106E-1
3.585435051E1,5.436750054E-1,-3.645125031E-1,2.103750035E-2
3.587435051E1,5.436750054E-1,-3.645125031E-1,2.103750035E-2
3.589435051E1,-3.638249934E-1,3.973750025E-2,-5.429875255E-1
3.591435051E1,-3.638249934E-1,3.973750025E-2,-5.429875255E-1
3.593435051E1,-3.638249934E-1,3.973750025E-2,-5.429875255E-1
3.595435051E1,-6.707249880E-1,3.048374951E-1,-5.582500100E-1
3.597435051E1,-6.707249880E-1,3.048374951E-1,-5.582500100E-1
3.599435051E1,-6.707249880E-1,3.048374951E-1,-5.582500100E-1
3.601435051E1,-6.707249880E-1,3.048374951E-1,-5.582500100E-1
3.603435051E1,-6.707249880E-1,3.048374951E-1,-5.582500100E-1
3.605435051E1,-6.707249880E-1,3.048374951E-1,-5.582500100E-1
3.607435051E1,-6.707249880E-1,3.048374951E-1,-5.582500100E-1
3.609435051E1,-5.582499877E-2,2.431000024E-1,-4.692874849E-1
3.611435051E1,-5.582499877E-2,2.431000024E-1,-4.692874849E-1
3.613435051E1,-5.087500066E-2,1.759999990E-2,-1.759999990E-1
3.615435051E1,-5.087500066E-2,1.759999990E-2,-1.759999990E-1
3.617435051E1,-5.087500066E-2,1.759999990E-2,-1.759999990E-1
3.619435051E1,-1.671999991E-1,2.048750035E-2,-1.458874941E-1
3.621435051E1,-1.671999991E-1,2.048750035E-2,-1.458874941E-1
3.623435051E1,-1.477987528E0,8.045125008E-1,-5.260750055E-1
3.625435051E1,-1.477987528E0,8.045125008E-1,-5.260750055E-1
3.627435051E1,-7.863624692E-1,1.787499934E-1,-3.299999833E-1
3.629435051E1,-7.863624692E-1,1.787499934E-1,-3.299999833E-1
3.631435051E1,-7.863624692E-1,1.787499934E-1,-3.299999833E-1
3.633435051E1,-7.863624692E-1,1.787499934E-1,-3.299999833E-1
3.635435051E1,-7.863624692E-1,1.787499934E-1,-3.299999833E-1
3.637435051E1,-7.863624692E-1,1.787499934E-1,-3.299999833E-1
3.639435051E1,-7.863624692E-1,1.787499934E-1,-3.299999833E-1
3.641435051E1,-7.863624692E-1,1.787499934E-1,-3.299999833E-1
3.643435051E1,-7.863624692E-1,1.787499934E-1,-3.299999833E-1
3.645435051E1,-7.863624692E-1,1.787499934E-1,-3.299999833E-1
3.647435051E1,1.135337472E0,-1.869862437E0,1.660312533E0
3.649435051E1,1.135337472E0,-1.869862437E0,1.660312533E0
3.651435051E1,1.135337472E0,-1.869862437E0,1.660312533E0
3.653435051E1,1.135337472E0,-1.869862437E0,1.660312533E0
3.655435051E1,1.135337472E0,-1.869862437E0,1.660312533E0
3.657435051E1,-8.951249719E-2,-6.624749899E-1,8.346250057E-1
3.659435051E1,-8.951249719E-2,-6.624749899E-1,8.346250057E-1
3.661435051E1,-4.193750024E-2,-3.550249934E-1,5.094375014E-1
3.663435051E1,-4.193750024E-2,-3.550249934E-1,5.094375014E-1
3.665435051E1,-4.193750024E-2,-3.550249934E-1,5.094375014E-1
3.667435051E1,-3.795000017E-1,5.706249923E-2,-8.676249981E-1
3.669435051E1,-3.795000017E-1,5.706249923E-2,-8.676249981E-1
3.671435051E1,-1.727687478E0,1.129974961E0,-2.297075033E0
3.673435051E1,-1.727687478E0,1.129974961E0,-2.297075033E0
3.675435051E1,-1.727687478E0,1.129974961E0,-2.297075033E0
3.677435051E1,-1.727687478E0,1.129974961E0,-2.297075033E0
3.679435051E1,-1.727687478E0,1.129974961E0,-2.297075033E0
3.681435051E1,-2.833187580E0,2.772962570E0,-2.333237410E0
3.683435051E1,-2.833187580E0,2.772962570E0,-2.333237410E0
3.685435051E1,-1.032624960E0,1.610949993E0,-9.706124663E-1
3.687435051E1,-1.032624960E0,1.610949993E0,-9.706124663E-1
3.689435051E1,-1.032624960E0,1.610949993E0,-9.706124663E-1
3.691435051E1,-1.704999991E-2,6.380000114E-1,1.141249947E-2
3.693435051E1,-1.704999991E-2,6.380000114E-1,1.141249947E-2
3.695435051E1,-6.421250105E-2,-4.361499846E-1,1.560624957E0
3.697435051E1,-6.421250105E-2,-4.361499846E-1,1.560624957E0
3.699435051E1,-6.421250105E-2,-4.361499846E-1,1.560624957E0
3.701435051E1,1.628412485E0,-1.521712542E0,3.185874939E0
3.703435051E1,1.628412485E0,-1.521712542E0,3.185874939E0
3.705435051E1,1.893787503E0,-1.403049946E0,2.758387566E0
3.707435051E1,1.893787503E0,-1.403049946E0,2.758387566E0
3.709435051E1,1.893787503E0,-1.403049946E0,2.758387566E0
3.711435051E1,1.893787503E0,-1.403049946E0,2.758387566E0
3.713435051E1,1.893787503E0,-1.403049946E0,2.758387566E0
3.715435051E1,5.361124873E-1,-2.256374955E-1,4.892250001E-1
3.717435051E1,5.361124873E-1,-2.256374955E-1,4.892250001E-1
3.719435051E1,1.805374980E0,-3.102000058E-1,-1.107837439E0
3.721435051E1,1.805374980E0,-3.102000058E-1,-1.107837439E0
3.723435051E1,1.805374980E0,-3.102000058E-1,-1.107837439E0
3.725435051E1,6.159999967E-1,3.631374836E-1,-1.171087503E0
3.727435051E1,6.159999967E-1,3.631374836E-1,-1.171087503E0
3.729435051E1,-5.746124983E-1,1.066725016E0,-9.785875082E-1
3.731435051E1,-5.746124983E-1,1.066725016E0,-9.785875082E-1
3.733435051E1,-5.746124983E-1,1.066725016E0,-9.785875082E-1
3.735435051E1,-5.746124983E-1,1.066725016E0,-9.785875082E-1
3.737435051E1,-5.746124983E-1,1.066725016E0,-9.785875082E-1
3.739435051E1,-2.590500116E-1,9.323874712E-1,-4.373874962E-1
3.741435051E1,-2.590500116E-1,9.323874712E-1,-4.373874962E-1
3.743435051E1,-2.590500116E-1,9.323874712E-1,-4.373874962E-1
3.745435051E1,-2.590500116E-1,9.323874712E-1,-4.373874962E-1
3.747435051E1,-2.590500116E-1,9.323874712E-1,-4.373874962E-1
3.749435051E1,-4.757499993E-1,1.058200002E0,-4.677749872E-1
3.751435051E1,-4.757499993E-1,1.058200002E0,-4.677749872E-1
3.753435051E1,-9.667624831E-1,1.511262536E0,-7.928249836E-1
3.755435051E1,-9.667624831E-1,1.511262536E0,-7.928249836E-1
3.757435051E1,-9.667624831E-1,1.511262536E0,-7.928249836E-1
3.759435051E1,-9.667624831E-1,1.511262536E0,-7.928249836E-1
3.761435051E1,-9.667624831E-1,1.511262536E0,-7.928249836E-1
3.763435051E1,-1.375412464E0,1.446499944E0,-7.033125162E-1
3.765435051E1,-1.375412464E0,1.446499944E0,-7.033125162E-1
3.767435051E1,-1.375412464E0,1.446499944E0,-7.033125162E-1
3.769435051E1,-1.375412464E0,1.446499944E0,-7.033125162E-1
3.771435051E1,-1.375412464E0,1.446499944E0,-7.033125162E-1
3.773435051E1,5.259374976E-1,-8.728500009E-1,7.077124715E-1
3.775435051E1,5.259374976E-1,-8.728500009E-1,7.077124715E-1
3.777435051E1,7.750874758E-1,-1.525974989E0,1.268025041E0
3.777435051E1,7.750874758E-1,-1.525974989E0,1.268025041E0
3.781435051E1,7.750874758E-1,-1.525974989E0,1.268025041E0
3.783435051E1,7.750874758E-1,-1.525974989E0,1.268025041E0
3.785435051E1,7.750874758E-1,-1.525974989E0,1.268025041E0
3.787435051E1,7.750874758E-1,-1.525974989E0,1.268025041E0
3.789435051E1,7.750874758E-1,-1.525974989E0,1.268025041E0
3.791435051E1,-6.270000339E-2,-6.166874766E-1,5.999125242E-1
3.793435051E1,-6.270000339E-2,-6.166874766E-1,5.999125242E-1
3.795435051E1,-6.270000339E-2,-6.166874766E-1,5.999125242E-1
3.797435051E1,-4.424749911E-1,-1.200374961E-1,4.232249856E-1
3.799435051E1,-4.424749911E-1,-1.200374961E-1,4.232249856E-1
3.801435051E1,-4.424749911E-1,-1.200374961E-1,4.232249856E-1
3.803435051E1,-4.424749911E-1,-1.200374961E-1,4.232249856E-1
3.805435051E1,-4.424749911E-1,-1.200374961E-1,4.232249856E-1
3.807435051E1,-1.913037539E0,1.148262501E0,-1.750100017E0
3.809435051E1,-1.913037539E0,1.148262501E0,-1.750100017E0
3.811435051E1,-1.868212461E0,1.933112502E0,-2.537012577E0
3.813435051E1,-1.868212461E0,1.933112502E0,-2.537012577E0
3.815435051E1,-1.868212461E0,1.933112502E0,-2.537012577E0
3.817435051E1,-1.868212461E0,1.933112502E0,-2.537012577E0
3.819435051E1,-1.868212461E0,1.933112502E0,-2.537012577E0
3.821435051E1,-9.974250197E-1,1.274762511E0,-9.453125000E-1
3.823435051E1,-9.974250197E-1,1.274762511E0,-9.453125000E-1
3.825435051E1,-9.974250197E-1,1.274762511E0,-9.453125000E-1
3.827435051E1,-9.974250197E-1,1.274762511E0,-9.453125000E-1
3.829435051E1,-9.974250197E-1,1.274762511E0,-9.453125000E-1
3.831435051E1,1.304600000E0,-2.304500043E-1,8.232125044E-1
3.833435051E1,1.304600000E0,-2.304500043E-1,8.232125044E-1
3.835435051E1,1.304600000E0,-2.304500043E-1,8.232125044E-1
3.837435051E1,1.304600000E0,-2.304500043E-1,8.232125044E-1
3.839435051E1,1.304600000E0,-2.304500043E-1,8.232125044E-1
3.841435051E1,1.304600000E0,-2.304500043E-1,8.232125044E-1
3.843435051E1,1.304600000E0,-2.304500043E-1,8.232125044E-1
3.845435051E1,1.304600000E0,-2.304500043E-1,8.232125044E-1
3.847435051E1,1.304600000E0,-2.304500043E-1,8.232125044E-1
3.849435051E1,1.304600000E0,-2.304500043E-1,8.232125044E-1
3.851435051E1,1.304600000E0,-2.304500043E-1,8.232125044E-1
3.853435051E1,1.304600000E0,-2.304500043E-1,8.232125044E-1
3.855435051E1,3.431999981E-1,2.793999910E-1,-1.916749924E-1
3.857435051E1,3.431999981E-1,2.793999910E-1,-1.916749924E-1
3.859435051E1,-7.658749819E-2,6.928625107E-1,-7.034500241E-1
3.861435051E1,-7.658749819E-2,6.928625107E-1,-7.034500241E-1
3.863435051E1,-7.658749819E-2,6.928625107E-1,-7.034500241E-1
3.865435051E1,-7.658749819E-2,6.928625107E-1,-7.034500241E-1
3.867435051E1,-7.658749819E-2,6.928625107E-1,-7.034500241E-1
3.869435051E1,-6.078875065E-1,1.290437460E0,-1.015025020E0
3.871435051E1,-6.078875065E-1,1.290437460E0,-1.015025020E0
3.873435051E1,-6.078875065E-1,1.290437460E0,-1.015025020E0
3.875435051E1,-6.078875065E-1,1.290437460E0,-1.015025020E0
3.877435051E1,-6.078875065E-1,1.290437460E0,-1.015025020E0
3.879435051E1,-4.761624932E-1,1.114024997E0,-6.478999853E-1
3.881435051E1,-4.761624932E-1,1.114024997E0,-6.478999853E-1
3.883435051E1,-5.295125246E-1,1.169437528E0,-6.028000116E-1
3.885435051E1,-5.295125246E-1,1.169437528E0,-6.028000116E-1
3.887435051E1,-5.295125246E-1,1.169437528E0,-6.028000116E-1
3.889435051E1,-2.103749990E0,1.293324947E0,-6.609625220E-1
3.891435051E1,-2.103749990E0,1.293324947E0,-6.609625220E-1
3.893435051E1,-1.314087510E0,1.033174992E0,-3.533749878E-1
3.895435051E1,-1.314087510E0,1.033174992E0,-3.533749878E-1
3.897435051E1,-1.314087510E0,1.033174992E0,-3.533749878E-1
3.899435051E1,-1.314087510E0,1.033174992E0,-3.533749878E-1
3.901435051E1,-1.314087510E0,1.033174992E0,-3.533749878E-1
3.903435051E1,-2.935625017E-1,-5.743374825E-1,1.079512477E0
3.905435051E1,-2.935625017E-1,-5.743374825E-1,1.079512477E0
3.907435051E1,-2.935625017E-1,-5.743374825E-1,1.079512477E0
3.909435051E1,-2.935625017E-1,-5.743374825E-1,1.079512477E0
3.911435051E1,-2.935625017E-1,-5.743374825E-1,1.079512477E0
3.913435051E1,1.350112438E0,-2.136475086E0,1.870412469E0
3.915435051E1,1.350112438E0,-2.136475086E0,1.870412469E0
3.917435051E1,5.794249773E-1,-1.595275044E0,1.337462544E0
3.919435051E1,5.794249773E-1,-1.595275044E0,1.337462544E0
3.921435051E1,5.794249773E-1,-1.595275044E0,1.337462544E0
3.923435051E1,5.794249773E-1,-1.595275044E0,1.337462544E0
3.925435051E1,5.794249773E-1,-1.595275044E0,1.337462544E0
3.927435051E1,6.943749636E-2,1.099999994E-1,-1.905750036E-1
3.929435051E1,6.943749636E-2,1.099999994E-1,-1.905750036E-1
3.931435051E1,4.360125065E-1,8.292624950E-1,-9.257875085E-1
3.933435051E1,4.360125065E-1,8.292624950E-1,-9.257875085E-1
3.935435051E1,4.360125065E-1,8.292624950E-1,-9.257875085E-1
3.937435051E1,-4.239124954E-1,2.420549870E0,-1.844562531E0
3.939435051E1,-4.239124954E-1,2.420549870E0,-1.844562531E0
3.941435051E1,-4.239124954E-1,2.420549870E0,-1.844562531E0
3.943435051E1,-4.239124954E-1,2.420549870E0,-1.844562531E0
3.945435051E1,-4.239124954E-1,2.420549870E0,-1.844562531E0
3.947435051E1,-4.239124954E-1,2.420549870E0,-1.844562531E0
3.949435051E1,-4.239124954E-1,2.420549870E0,-1.844562531E0
3.951435051E1,-2.055624962E0,2.913349867E0,-1.861199975E0
3.953435051E1,-2.055624962E0,2.913349867E0,-1.861199975E0
3.955435051E1,-9.125875235E-1,1.556087494E0,-4.864749908E-1
3.957435051E1,-9.125875235E-1,1.556087494E0,-4.864749908E-1
3.959435051E1,-9.125875235E-1,1.556087494E0,-4.864749908E-1
3.961435051E1,-1.391499937E-1,6.337375045E-1,3.954499960E-1
3.963435051E1,-1.391499937E-1,6.337375045E-1,3.954499960E-1
3.965435051E1,8.266500235E-1,-1.368950009E0,2.111862421E0
3.967435051E1,8.266500235E-1,-1.368950009E0,2.111862421E0
3.969435051E1,1.839475036E0,-3.128124952E0,3.412887573E0
3.969435051E1,1.839475036E0,-3.128124952E0,3.412887573E0
3.973435051E1,1.839475036E0,-3.128124952E0,3.412887573E0
3.975435051E1,1.839475036E0,-3.128124952E0,3.412887573E0
3.977435051E1,1.839475036E0,-3.128124952E0,3.412887573E0
3.979435051E1,1.839475036E0,-3.128124952E0,3.412887573E0
3.981435051E1,1.839475036E0,-3.128124952E0,3.412887573E0
3.983435051E1,1.839475036E0,-3.128124952E0,3.412887573E0
3.985435051E1,7.213249803E-1,1.086249948E-2,5.429875255E-1
3.987435051E1,7.213249803E-1,1.086249948E-2,5.429875255E-1
3.989435051E1,8.452125192E-1,2.472524881E0,-1.520887494E0
3.991435051E1,8.452125192E-1,2.472524881E0,-1.520887494E0
3.993435051E1,8.452125192E-1,2.472524881E0,-1.520887494E0
3.995435051E1,1.086250022E-1,2.530962467E0,-1.496412516E0
3.997435051E1,1.086250022E-1,2.530962467E0,-1.496412516E0
3.999435051E1,-7.910374999E-1,2.236025095E0,-1.402087450E0
4.001435051E1,-7.910374999E-1,2.236025095E0,-1.402087450E0
4.003435051E1,-7.910374999E-1,2.236025095E0,-1.402087450E0
4.005435051E1,-7.910374999E-1,2.236025095E0,-1.402087450E0
4.007435051E1,-7.910374999E-1,2.236025095E0,-1.402087450E0
4.009435051E1,-8.095999956E-1,1.783924937E0,-1.151562452E0
4.011435051E1,-8.095999956E-1,1.783924937E0,-1.151562452E0
4.013435051E1,-8.095999956E-1,1.783924937E0,-1.151562452E0
4.015435051E1,-8.095999956E-1,1.783924937E0,-1.151562452E0
4.017435051E1,-8.095999956E-1,1.783924937E0,-1.151562452E0
4.019435051E1,-5.803874731E-1,1.218937516E0,-5.358374715E-1
4.021435051E1,-5.803874731E-1,1.218937516E0,-5.358374715E-1
4.023435051E1,-6.811749935E-1,9.767999649E-1,-5.152124763E-1
4.025435051E1,-6.811749935E-1,9.767999649E-1,-5.152124763E-1
4.027435051E1,-6.811749935E-1,9.767999649E-1,-5.152124763E-1
4.029435051E1,-6.811749935E-1,9.767999649E-1,-5.152124763E-1
4.031435051E1,-6.811749935E-1,9.767999649E-1,-5.152124763E-1
