Time (s),ax,ay,az,gx,gy,gz
5.014350509,4.005000114,-9.411000252,0.8760000467,0.09432499856,-0.2648249865,-0.1473999918
5.034350509,4.005000114,-9.411000252,0.8760000467,0.09432499856,-0.2648249865,-0.1473999918
5.054350509,4.005000114,-9.411000252,0.8760000467,0.09432499856,-0.2648249865,-0.1473999918
5.074350509,4.005000114,-9.411000252,0.8760000467,0.09432499856,-0.2648249865,-0.1473999918
5.094350509,4.005000114,-9.411000252,0.8760000467,0.09432499856,-0.2648249865,-0.1473999918
5.114350509,3.909000158,-7.342950344,0.6649500132,-0.004262499977,-0.2568500042,0.03107500076
5.134350509,3.909000158,-7.342950344,0.6649500132,-0.004262499977,-0.2568500042,0.03107500076
5.154350509,2.740950108,-7.707000256,-0.1950000077,-0.103262499,-0.274587512,0.1552374959
5.174350509,2.740950108,-7.707000256,-0.1950000077,-0.103262499,-0.274587512,0.1552374959
5.194350509,2.740950108,-7.707000256,-0.1950000077,-0.103262499,-0.274587512,0.1552374959
5.214350509,2.740950108,-7.707000256,-0.1950000077,-0.103262499,-0.274587512,0.1552374959
5.234350509,2.740950108,-7.707000256,-0.1950000077,-0.103262499,-0.274587512,0.1552374959
5.254350509,1.78395009,-11.28795052,-0.04200000316,-0.4357374907,0.2213750035,0.8098750114
5.274350509,1.78395009,-11.28795052,-0.04200000316,-0.4357374907,0.2213750035,0.8098750114
5.294350509,1.78395009,-11.28795052,-0.04200000316,-0.4357374907,0.2213750035,0.8098750114
5.314350509,1.78395009,-11.28795052,-0.04200000316,-0.4357374907,0.2213750035,0.8098750114
5.334350509,1.78395009,-11.28795052,-0.04200000316,-0.4357374907,0.2213750035,0.8098750114
5.354350509,3.373050213,-11.46000099,-0.5590500236,-0.4347749949,0.06393750012,0.6910749674
5.374350509,3.373050213,-11.46000099,-0.5590500236,-0.4347749949,0.06393750012,0.6910749674
5.394350509,3.373050213,-11.46000099,-0.5590500236,-0.4347749949,0.06393750012,0.6910749674
5.414350509,3.373050213,-11.46000099,-0.5590500236,-0.4347749949,0.06393750012,0.6910749674
5.434350509,3.373050213,-11.46000099,-0.5590500236,-0.4347749949,0.06393750012,0.6910749674
5.454350509,3.373050213,-11.46000099,-0.5590500236,-0.4347749949,0.06393750012,0.6910749674
5.474350509,3.373050213,-11.46000099,-0.5590500236,-0.4347749949,0.06393750012,0.6910749674
5.494350509,-0.7050000429,-9.085050583,-0.9040500522,-0.2261874974,-0.6294749975,0.6634374857
5.514350509,-0.7050000429,-9.085050583,-0.9040500522,-0.2261874974,-0.6294749975,0.6634374857
5.534350509,-0.7050000429,-9.085050583,-0.9040500522,-0.2261874974,-0.6294749975,0.6634374857
5.554350509,-0.7050000429,-9.085050583,-0.9040500522,-0.2261874974,-0.6294749975,0.6634374857
5.574350509,-0.7050000429,-9.085050583,-0.9040500522,-0.2261874974,-0.6294749975,0.6634374857
5.594350509,0.9990000725,-9.544950485,-0.865950048,-0.2732124925,-0.8736749887,0.9211124778
5.614350509,0.9990000725,-9.544950485,-0.865950048,-0.2732124925,-0.8736749887,0.9211124778
5.634350509,1.132950068,-9.928050041,-0.1950000077,-0.245024994,-0.9022749662,0.8915500045
5.654350509,1.132950068,-9.928050041,-0.1950000077,-0.245024994,-0.9022749662,0.8915500045
5.674350509,1.132950068,-9.928050041,-0.1950000077,-0.245024994,-0.9022749662,0.8915500045
5.694350509,0.9220500588,-10.31100082,0.511950016,-0.1039500013,-0.9447624683,0.4450874925
5.714350509,0.9220500588,-10.31100082,0.511950016,-0.1039500013,-0.9447624683,0.4450874925
5.734350509,-0.6280500293,-10.57905006,0.244050011,0.2968625128,-0.7636749744,-0.02282499894
5.754350509,-0.6280500293,-10.57905006,0.244050011,0.2968625128,-0.7636749744,-0.02282499894
5.774350509,-0.6280500293,-10.57905006,0.244050011,0.2968625128,-0.7636749744,-0.02282499894
5.794350509,-0.6280500293,-10.57905006,0.244050011,0.2968625128,-0.7636749744,-0.02282499894
5.814350509,-0.6280500293,-10.57905006,0.244050011,0.2968625128,-0.7636749744,-0.02282499894
5.834350509,-0.8959500194,-10.69395065,-0.1759500057,0.4563624859,-0.6572499871,0.1357125044
5.854350509,-0.8959500194,-10.69395065,-0.1759500057,0.4563624859,-0.6572499871,0.1357125044
5.874350509,-0.8959500194,-10.69395065,-0.1759500057,0.4563624859,-0.6572499871,0.1357125044
5.894350509,-0.8959500194,-10.69395065,-0.1759500057,0.4563624859,-0.6572499871,0.1357125044
5.914350509,-0.8959500194,-10.69395065,-0.1759500057,0.4563624859,-0.6572499871,0.1357125044
5.934350509,1.573050022,-6.748950481,0.3589500189,0.2338874936,-1.087900043,0.2358125001
5.954350509,1.573050022,-6.748950481,0.3589500189,0.2338874936,-1.087900043,0.2358125001
5.974350509,0.8839500546,-10.19595051,0.9340500236,0.09019999951,-1.318762541,0.1079374999
5.994350509,0.8839500546,-10.19595051,0.9340500236,0.09019999951,-1.318762541,0.1079374999
6.014350509,0.8839500546,-10.19595051,0.9340500236,0.09019999951,-1.318762541,0.1079374999
6.034350509,0.8839500546,-10.19595051,0.9340500236,0.09019999951,-1.318762541,0.1079374999
6.054350509,0.8839500546,-10.19595051,0.9340500236,0.09019999951,-1.318762541,0.1079374999
6.074350509,0.8449500203,-10.09995079,1.834050059,0.4481124878,-0.7973625064,-0.4109874964
6.094350509,0.8449500203,-10.09995079,1.834050059,0.4481124878,-0.7973625064,-0.4109874964
6.114350509,0.8449500203,-10.09995079,1.834050059,0.4481124878,-0.7973625064,-0.4109874964
6.134350509,0.8449500203,-10.09995079,1.834050059,0.4481124878,-0.7973625064,-0.4109874964
6.154350509,0.8449500203,-10.09995079,1.834050059,0.4481124878,-0.7973625064,-0.4109874964
6.174350509,1.650000095,-9.697950363,1.068000078,0.6223250031,-0.06723749638,-0.3194124997
6.194350509,1.650000095,-9.697950363,1.068000078,0.6223250031,-0.06723749638,-0.3194124997
6.214350509,2.205000162,-9.526050568,0.9529500604,0.4287250042,-0.1243000031,-0.2000624985
6.234350509,2.205000162,-9.526050568,0.9529500604,0.4287250042,-0.1243000031,-0.2000624985
6.254350509,2.205000162,-9.526050568,0.9529500604,0.4287250042,-0.1243000031,-0.2000624985
6.274350509,2.205000162,-9.526050568,0.9529500604,0.4287250042,-0.1243000031,-0.2000624985
6.294350509,2.205000162,-9.526050568,0.9529500604,0.4287250042,-0.1243000031,-0.2000624985
6.314350509,2.224050045,-9.219000816,1.795050144,0.2677125037,-0.6062374711,-0.5028374791
6.334350509,2.224050045,-9.219000816,1.795050144,0.2677125037,-0.6062374711,-0.5028374791
6.354350509,2.224050045,-9.219000816,1.795050144,0.2677125037,-0.6062374711,-0.5028374791
6.374350509,2.224050045,-9.219000816,1.795050144,0.2677125037,-0.6062374711,-0.5028374791
6.394350509,2.224050045,-9.219000816,1.795050144,0.2677125037,-0.6062374711,-0.5028374791
6.414350509,1.611000061,-9.813000679,1.144050002,0.3332999945,-0.9345874786,-0.2778874934
6.434350509,1.611000061,-9.813000679,1.144050002,0.3332999945,-0.9345874786,-0.2778874934
6.454350509,1.611000061,-9.813000679,1.144050002,0.3332999945,-0.9345874786,-0.2778874934
6.474350509,1.611000061,-9.813000679,1.144050002,0.3332999945,-0.9345874786,-0.2778874934
6.494350509,1.611000061,-9.813000679,1.144050002,0.3332999945,-0.9345874786,-0.2778874934
6.514350509,1.611000061,-9.813000679,1.144050002,0.3332999945,-0.9345874786,-0.2778874934
6.534350509,1.611000061,-9.813000679,1.144050002,0.3332999945,-0.9345874786,-0.2778874934
6.554350509,4.197000027,-8.913000107,1.852950096,0.2475000024,-1.80331254,0.001512499992
6.574350509,4.197000027,-8.913000107,1.852950096,0.2475000024,-1.80331254,0.001512499992
6.594350509,4.197000027,-8.913000107,1.852950096,0.2475000024,-1.80331254,0.001512499992
6.614350509,4.197000027,-8.913000107,1.852950096,0.2475000024,-1.80331254,0.001512499992
6.634350509,4.197000027,-8.913000107,1.852950096,0.2475000024,-1.80331254,0.001512499992
6.654350509,3.544950247,-8.970000267,1.162950039,0.3473249972,-1.470149994,-0.6619250178
6.674350509,3.544950247,-8.970000267,1.162950039,0.3473249972,-1.470149994,-0.6619250178
6.694350509,2.779950142,-9.238950729,1.221000075,0.3429250121,-1.249462485,-0.6154500246
6.714350509,2.779950142,-9.238950729,1.221000075,0.3429250121,-1.249462485,-0.6154500246
6.734350509,2.779950142,-9.238950729,1.221000075,0.3429250121,-1.249462485,-0.6154500246
6.754350509,4.599000454,-10.27305031,1.603950024,0.3708375096,-0.9051625133,-0.3983374834
6.774350509,4.599000454,-10.27305031,1.603950024,0.3708375096,-0.9051625133,-0.3983374834
6.794350509,5.977050304,-12.05295086,1.431000113,0.3778499961,-0.5612750053,-0.3287625015
6.814350509,5.977050304,-12.05295086,1.431000113,0.3778499961,-0.5612750053,-0.3287625015
6.834350509,5.977050304,-12.05295086,1.431000113,0.3778499961,-0.5612750053,-0.3287625015
6.854350509,5.977050304,-12.05295086,1.431000113,0.3778499961,-0.5612750053,-0.3287625015
6.874350509,5.977050304,-12.05295086,1.431000113,0.3778499961,-0.5612750053,-0.3287625015
6.894350509,1.55400002,-7.648950577,0.09105000645,-0.3634124994,-1.225399971,-0.1119249985
6.914350509,1.55400002,-7.648950577,0.09105000645,-0.3634124994,-1.225399971,-0.1119249985
6.934350509,1.55400002,-7.648950577,0.09105000645,-0.3634124994,-1.225399971,-0.1119249985
6.954350509,1.55400002,-7.648950577,0.09105000645,-0.3634124994,-1.225399971,-0.1119249985
6.974350509,1.55400002,-7.648950577,0.09105000645,-0.3634124994,-1.225399971,-0.1119249985
6.994350509,3.469050169,-9.660000801,3.480000257,0.1788875014,-0.4104374945,0.1201749966
7.014350509,3.469050169,-9.660000801,3.480000257,0.1788875014,-0.4104374945,0.1201749966
7.034350509,3.316050053,-10.13895035,3.403950214,0.4643374979,-0.2479124963,0.2567124963
7.054350509,3.316050053,-10.13895035,3.403950214,0.4643374979,-0.2479124963,0.2567124963
7.074350509,3.316050053,-10.13895035,3.403950214,0.4643374979,-0.2479124963,0.2567124963
7.094350509,3.316050053,-10.13895035,3.403950214,0.4643374979,-0.2479124963,0.2567124963
7.114350509,3.316050053,-10.13895035,3.403950214,0.4643374979,-0.2479124963,0.2567124963
7.134350509,3.334950209,-11.40195084,-0.7120500207,0.7834749818,-0.3984749913,0.4505875111
7.154350509,3.334950209,-11.40195084,-0.7120500207,0.7834749818,-0.3984749913,0.4505875111
7.174350509,-0.1879500151,-9.352950096,-0.9229500294,0.692312479,-1.376099944,0.5545374751
7.194350509,-0.1879500151,-9.352950096,-0.9229500294,0.692312479,-1.376099944,0.5545374751
7.214350509,-0.1879500151,-9.352950096,-0.9229500294,0.692312479,-1.376099944,0.5545374751
7.234350509,-1.048950076,-7.419000149,-1.306050062,0.5010499954,-3.240599871,0.963462472
7.254350509,-1.048950076,-7.419000149,-1.306050062,0.5010499954,-3.240599871,0.963462472
7.274350509,-1.048950076,-7.419000149,-1.306050062,-0.0192499999,-4.865712643,1.26472497
7.294350509,-1.048950076,-7.419000149,-1.306050062,-0.0192499999,-4.865712643,1.26472497
7.314350509,-1.048950076,-7.419000149,-1.306050062,-0.0192499999,-4.865712643,1.26472497
7.334350509,-1.048950076,-7.419000149,-1.306050062,-0.0192499999,-4.865712643,1.26472497
7.354350509,-1.048950076,-7.419000149,-1.306050062,-0.0192499999,-4.865712643,1.26472497
7.374350509,6.763050556,-7.381050587,-3.124950171,-0.2862749994,-3.85027504,0.5559124947
7.394350509,6.763050556,-7.381050587,-3.124950171,-0.2862749994,-3.85027504,0.5559124947
7.414350509,6.763050556,-7.381050587,-3.124950171,-0.2862749994,-3.85027504,0.5559124947
7.434350509,6.763050556,-7.381050587,-3.124950171,-0.2862749994,-3.85027504,0.5559124947
7.454350509,6.763050556,-7.381050587,-3.124950171,-0.2862749994,-3.85027504,0.5559124947
7.474350509,13.3879509,-9.12405014,-0.5400000215,-1.633774996,1.179199934,-2.499199867
7.494350509,13.3879509,-9.12405014,-0.5400000215,-1.633774996,1.179199934,-2.499199867
7.514350509,13.3879509,-9.12405014,-0.5400000215,-1.57258749,2.029500008,-2.622674942
7.534350509,13.3879509,-9.12405014,-0.5400000215,-1.57258749,2.029500008,-2.622674942
7.554350509,13.3879509,-9.12405014,-0.5400000215,-1.57258749,2.029500008,-2.622674942
7.574350509,13.3879509,-9.12405014,-0.5400000215,-1.57258749,2.029500008,-2.622674942
7.594350509,13.3879509,-9.12405014,-0.5400000215,-1.57258749,2.029500008,-2.622674942
7.614350509,-2.505000114,-5.275050163,2.542050123,1.141662478,0.09253749996,0.3005749881
7.634350509,-2.505000114,-5.275050163,2.542050123,1.141662478,0.09253749996,0.3005749881
7.654350509,-2.505000114,-5.275050163,2.542050123,1.141662478,0.09253749996,0.3005749881
7.674350509,-2.505000114,-5.275050163,2.542050123,1.141662478,0.09253749996,0.3005749881
7.694350509,-2.505000114,-5.275050163,2.542050123,1.141662478,0.09253749996,0.3005749881
7.714350509,2.242950201,-11.36400032,2.619000196,3.142287493,-2.760725021,2.616899967
7.734350509,2.242950201,-11.36400032,2.619000196,3.142287493,-2.760725021,2.616899967
7.754350509,2.281949997,-9.29595089,0.378000021,2.490124941,-3.386625051,3.035312414
7.774350509,2.281949997,-9.29595089,0.378000021,2.490124941,-3.386625051,3.035312414
7.794350509,2.281949997,-9.29595089,0.378000021,2.490124941,-3.386625051,3.035312414
7.814350509,3.660000086,-8.109000206,1.240050077,1.786399961,-1.784887433,1.767150044
7.834350509,3.660000086,-8.109000206,1.240050077,1.786399961,-1.784887433,1.767150044
7.854350509,5.020050049,-9.028050423,1.852950096,0.4335374832,0.7785249949,-0.1838375032
7.874350509,5.020050049,-9.028050423,1.852950096,0.4335374832,0.7785249949,-0.1838375032
7.894350509,5.020050049,-9.028050423,1.852950096,0.4335374832,0.7785249949,-0.1838375032
7.914350509,5.020050049,-9.028050423,1.852950096,0.4335374832,0.7785249949,-0.1838375032
7.934350509,5.020050049,-9.028050423,1.852950096,0.4335374832,0.7785249949,-0.1838375032
7.954350509,3.75600028,-8.109000206,0.8190000653,-0.7507500052,2.207012415,-1.648625016
7.974350509,3.75600028,-8.109000206,0.8190000653,-0.7507500052,2.207012415,-1.648625016
7.994350509,2.875050068,-9.448950768,-1.612050056,-0.8790374994,1.746937513,-1.443612456
8.014350509,2.875050068,-9.448950768,-1.612050056,-0.8790374994,1.746937513,-1.443612456
8.034350509,2.875050068,-9.448950768,-1.612050056,-0.8790374994,1.746937513,-1.443612456
8.054350509,5.001000404,-10.52205086,1.987050056,-0.802862525,1.136987448,-1.001137495
8.074350509,5.001000404,-10.52205086,1.987050056,-0.802862525,1.136987448,-1.001137495
8.094350509,6.091950417,-11.38305092,2.809950113,-0.5300624967,0.7254499793,-0.5868499875
8.114350509,6.091950417,-11.38305092,2.809950113,-0.5300624967,0.7254499793,-0.5868499875
8.134350509,6.091950417,-11.38305092,2.809950113,-0.5300624967,0.7254499793,-0.5868499875
8.154350509,6.091950417,-11.38305092,2.809950113,-0.5300624967,0.7254499793,-0.5868499875
8.174350509,6.091950417,-11.38305092,2.809950113,-0.5300624967,0.7254499793,-0.5868499875
8.194350509,7.126050472,-11.63205051,-0.5020500422,-1.20518744,-0.2667500079,-0.05843750015
8.214350509,7.126050472,-11.63205051,-0.5020500422,-1.20518744,-0.2667500079,-0.05843750015
8.234350509,5.728050232,-9.009000778,1.75695014,-0.9182249904,0.2055625021,-0.39517501
8.254350509,5.728050232,-9.009000778,1.75695014,-0.9182249904,0.2055625021,-0.39517501
8.274350509,5.728050232,-9.009000778,1.75695014,-0.9182249904,0.2055625021,-0.39517501
8.294350509,3.832950115,-12.74295044,5.260950089,-0.05623750016,0.8793125153,-0.5699374676
8.314350509,3.832950115,-12.74295044,5.260950089,-0.05623750016,0.8793125153,-0.5699374676
8.334350509,2.799000025,-14.8879509,3.921000242,0.1244374961,0.5879499912,0.04771250114
8.354350509,2.799000025,-14.8879509,3.921000242,0.1244374961,0.5879499912,0.04771250114
8.374350509,0.8650500178,-8.43405056,0.2059500068,0.5139750242,0.04138749838,0.6474875212
8.394350509,0.8650500178,-8.43405056,0.2059500068,0.5139750242,0.04138749838,0.6474875212
8.414350509,0.8650500178,-8.43405056,0.2059500068,0.5139750242,0.04138749838,0.6474875212
8.434350509,0.8650500178,-8.43405056,0.2059500068,0.5139750242,0.04138749838,0.6474875212
8.454350509,0.8650500178,-8.43405056,0.2059500068,0.5139750242,0.04138749838,0.6474875212
8.474350509,0.8650500178,-8.43405056,0.2059500068,0.5139750242,0.04138749838,0.6474875212
8.494350509,0.8650500178,-8.43405056,0.2059500068,0.5139750242,0.04138749838,0.6474875212
8.514350509,0.8650500178,-8.43405056,0.2059500068,0.5139750242,0.04138749838,0.6474875212
8.534350509,2.089950085,-6.079050064,0.05295000225,0.7425000072,-1.785712481,1.322749972
8.554350509,2.089950085,-6.079050064,0.05295000225,0.7425000072,-1.785712481,1.322749972
8.574350509,-0.6280500293,-5.256000042,-0.8269500136,0.3301374912,-1.877974987,1.111137509
8.594350509,-0.6280500293,-5.256000042,-0.8269500136,0.3301374912,-1.877974987,1.111137509
8.614350509,-0.6280500293,-5.256000042,-0.8269500136,0.3301374912,-1.877974987,1.111137509
8.634350509,-0.6280500293,-5.256000042,-0.8269500136,0.3301374912,-1.877974987,1.111137509
8.654350509,-0.6280500293,-5.256000042,-0.8269500136,0.3301374912,-1.877974987,1.111137509
8.674350509,8.293950081,-9.775050163,-6.687000275,-0.5302000046,-0.8464499712,-0.1652749926
8.694350509,8.293950081,-9.775050163,-6.687000275,-0.5302000046,-0.8464499712,-0.1652749926
8.714350509,12.50700092,-13.0489502,-5.097000122,-2.148849964,0.5908374786,-1.681762457
8.734350509,12.50700092,-13.0489502,-5.097000122,-2.148849964,0.5908374786,-1.681762457
8.754350509,12.50700092,-13.0489502,-5.097000122,-2.148849964,0.5908374786,-1.681762457
8.774350509,9.040950775,-4.71900034,-0.2340000123,-1.6328125,2.030324936,-2.531512499
8.794350509,9.040950775,-4.71900034,-0.2340000123,-1.6328125,2.030324936,-2.531512499
8.814350509,9.040950775,-4.71900034,-0.2340000123,-1.6328125,2.030324936,-2.531512499
8.834350509,9.040950775,-4.71900034,-0.2340000123,-1.6328125,2.030324936,-2.531512499
8.854350509,9.040950775,-4.71900034,-0.2340000123,-1.6328125,2.030324936,-2.531512499
8.874350509,-0.09195000678,-8.98995018,3.174000263,-0.6374499798,0.1956624985,-0.5970249772
8.894350509,-0.09195000678,-8.98995018,3.174000263,-0.6374499798,0.1956624985,-0.5970249772
8.914350509,-2.160000086,-7.458000183,2.982000113,0.1792999953,0.04949999973,0.09047500044
8.934350509,-2.160000086,-7.458000183,2.982000113,0.1792999953,0.04949999973,0.09047500044
8.954350509,-2.160000086,-7.458000183,2.982000113,0.1792999953,0.04949999973,0.09047500044
8.974350509,-2.160000086,-7.458000183,2.982000113,0.1792999953,0.04949999973,0.09047500044
8.994350509,-2.160000086,-7.458000183,2.982000113,0.1792999953,0.04949999973,0.09047500044
9.014350509,0.9799500704,-9.43005085,0.3589500189,2.075012445,-2.93947506,3.072299957
9.034350509,0.9799500704,-9.43005085,0.3589500189,2.075012445,-2.93947506,3.072299957
9.054350509,3.450000048,-8.779050827,-1.804050088,1.1171875,-2.551174879,2.634224892
9.074350509,3.450000048,-8.779050827,-1.804050088,1.1171875,-2.551174879,2.634224892
9.094350509,3.450000048,-8.779050827,-1.804050088,1.1171875,-2.551174879,2.634224892
9.114350509,4.157999992,-8.644950867,2.523000002,1.446912527,-1.336774945,1.296625018
9.134350509,4.157999992,-8.644950867,2.523000002,1.446912527,-1.336774945,1.296625018
9.154350509,4.157999992,-8.644950867,2.523000002,1.446912527,-1.336774945,1.296625018
9.174350509,4.157999992,-8.644950867,2.523000002,1.446912527,-1.336774945,1.296625018
9.194350509,4.157999992,-8.644950867,2.523000002,1.446912527,-1.336774945,1.296625018
9.214350509,4.157999992,-8.644950867,2.523000002,1.446912527,-1.336774945,1.296625018
9.234350509,4.157999992,-8.644950867,2.523000002,1.446912527,-1.336774945,1.296625018
9.254350509,3.775050163,-8.970000267,-0.04200000316,-1.511812449,1.711187482,-1.853224993
9.274350509,3.775050163,-8.970000267,-0.04200000316,-1.511812449,1.711187482,-1.853224993
9.294350509,3.775050163,-8.970000267,-0.04200000316,-1.511812449,1.711187482,-1.853224993
9.314350509,3.775050163,-8.970000267,-0.04200000316,-1.511812449,1.711187482,-1.853224993
9.334350509,3.775050163,-8.970000267,-0.04200000316,-1.511812449,1.711187482,-1.853224993
9.354350509,5.269050121,-11.88105011,2.638050079,-0.1698125005,1.372112513,-0.958512485
9.374350509,5.269050121,-11.88105011,2.638050079,-0.1698125005,1.372112513,-0.958512485
9.394350509,7.375050545,-11.80500031,-1.593000054,-0.210512504,0.8436999917,-0.4439874887
9.414350509,7.375050545,-11.80500031,-1.593000054,-0.210512504,0.8436999917,-0.4439874887
9.434350509,7.375050545,-11.80500031,-1.593000054,-0.210512504,0.8436999917,-0.4439874887
9.454350509,7.375050545,-11.80500031,-1.593000054,-0.210512504,0.8436999917,-0.4439874887
9.474350509,7.375050545,-11.80500031,-1.593000054,-0.210512504,0.8436999917,-0.4439874887
9.494350509,2.66505003,-8.473050117,1.52700007,-0.648999989,0.3691875041,-0.3312374949
9.514350509,2.66505003,-8.473050117,1.52700007,-0.648999989,0.3691875041,-0.3312374949
9.534350509,2.66505003,-8.473050117,1.52700007,-0.648999989,0.3691875041,-0.3312374949
9.554350509,2.66505003,-8.473050117,1.52700007,-0.648999989,0.3691875041,-0.3312374949
9.574350509,2.66505003,-8.473050117,1.52700007,-0.648999989,0.3691875041,-0.3312374949
9.594350509,1.189950109,-13.66200066,3.001950026,0.02557500079,0.09391249716,0.3953124881
9.614350509,1.189950109,-13.66200066,3.001950026,0.02557500079,0.09391249716,0.3953124881
9.634350509,0.9600000381,-7.668000221,-0.6360000372,0.3502124846,-0.6800749898,0.8709250093
9.654350509,0.9600000381,-7.668000221,-0.6360000372,0.3502124846,-0.6800749898,0.8709250093
9.674350509,0.9600000381,-7.668000221,-0.6360000372,0.3502124846,-0.6800749898,0.8709250093
9.694350509,0.9600000381,-7.668000221,-0.6360000372,0.3502124846,-0.6800749898,0.8709250093
9.714350509,0.9600000381,-7.668000221,-0.6360000372,0.3502124846,-0.6800749898,0.8709250093
9.734350509,2.397000074,-6.022050381,0.6649500132,1.860512495,-2.604249954,1.989349961
9.754350509,2.397000074,-6.022050381,0.6649500132,1.860512495,-2.604249954,1.989349961
9.774350509,2.397000074,-6.022050381,0.6649500132,1.860512495,-2.604249954,1.989349961
9.794350509,2.397000074,-6.022050381,0.6649500132,1.860512495,-2.604249954,1.989349961
9.814350509,2.397000074,-6.022050381,0.6649500132,1.860512495,-2.604249954,1.989349961
9.834350509,2.740950108,-6.80700016,-1.804050088,0.5647125244,-1.747349977,0.8604750037
9.854350509,2.740950108,-6.80700016,-1.804050088,0.5647125244,-1.747349977,0.8604750037
9.874350509,3.316050053,-7.266000271,-2.85705018,-0.4199250042,-0.2475000024,-0.3792249858
9.894350509,3.316050053,-7.266000271,-2.85705018,-0.4199250042,-0.2475000024,-0.3792249858
9.914350509,3.316050053,-7.266000271,-2.85705018,-0.4199250042,-0.2475000024,-0.3792249858
9.934350509,9.865050316,-10.67505074,-0.5020500422,-2.05644989,0.5640249848,-1.350112438
9.954350509,9.865050316,-10.67505074,-0.5020500422,-2.05644989,0.5640249848,-1.350112438
9.974350509,15.99195099,-10.08105087,2.542050123,-2.440350056,1.42642498,-2.333787441
9.994350509,15.99195099,-10.08105087,2.542050123,-2.440350056,1.42642498,-2.333787441
10.01435051,15.99195099,-10.08105087,2.542050123,-2.440350056,1.42642498,-2.333787441
10.03435051,15.99195099,-10.08105087,2.542050123,-2.440350056,1.42642498,-2.333787441
10.05435051,15.99195099,-10.08105087,2.542050123,-2.440350056,1.42642498,-2.333787441
10.07435051,1.78395009,-14.81100082,-0.4440000355,-0.7405750155,1.515112519,-1.36345005
10.09435051,1.78395009,-14.81100082,-0.4440000355,-0.7405750155,1.515112519,-1.36345005
10.11435051,-1.89195013,-6.001950264,2.215950012,0.05211250111,0.6804875135,-0.3159750104
10.13435051,-1.89195013,-6.001950264,2.215950012,0.05211250111,0.6804875135,-0.3159750104
10.15435051,-1.89195013,-6.001950264,2.215950012,0.05211250111,0.6804875135,-0.3159750104
10.17435051,-3.673050165,-7.897950172,3.49905014,1.414737463,0.4644750059,0.5963374972
10.19435051,-3.673050165,-7.897950172,3.49905014,1.414737463,0.4644750059,0.5963374972
10.21435051,-2.256000042,-10.04295063,3.001950026,2.614150047,-2.243587494,2.891350031
10.23435051,-2.256000042,-10.04295063,3.001950026,2.614150047,-2.243587494,2.891350031
10.25435051,-2.256000042,-10.04295063,3.001950026,1.879624963,-4.091312408,4.523337364
10.25435051,0.04095000029,-9.928050041,0.1290000081,1.879624963,-4.091312408,4.523337364
10.29435051,0.04095000029,-9.928050041,0.1290000081,1.879624963,-4.091312408,4.523337364
10.31435051,3.544950247,-8.722050667,1.009950042,0.7532249689,-2.980862379,3.36448741
10.33435051,3.544950247,-8.722050667,1.009950042,0.7532249689,-2.980862379,3.36448741
10.35435051,3.544950247,-8.722050667,1.009950042,0.7532249689,-2.980862379,3.36448741
10.37435051,3.544950247,-8.722050667,1.009950042,0.7532249689,-2.980862379,3.36448741
10.39435051,3.544950247,-8.722050667,1.009950042,0.7532249689,-2.980862379,3.36448741
10.41435051,5.938950062,-8.740950584,2.044049978,0.3040125072,0.4614500105,-0.885224998
10.43435051,5.938950062,-8.740950584,2.044049978,0.3040125072,0.4614500105,-0.885224998
10.45435051,5.938950062,-8.740950584,2.044049978,0.3040125072,0.4614500105,-0.885224998
10.47435051,5.938950062,-8.740950584,2.044049978,0.3040125072,0.4614500105,-0.885224998
10.49435051,5.938950062,-8.740950584,2.044049978,0.3040125072,0.4614500105,-0.885224998
10.51435051,5.938950062,-8.740950584,2.044049978,0.3040125072,0.4614500105,-0.885224998
10.53435051,5.938950062,-8.740950584,2.044049978,0.3040125072,0.4614500105,-0.885224998
10.55435051,5.499000072,-11.09595013,2.236050129,-0.9736375213,1.948374987,-1.821187496
10.57435051,5.499000072,-11.09595013,2.236050129,-0.9736375213,1.948374987,-1.821187496
10.59435051,5.824050426,-9.966000557,1.546050072,-0.6819999814,1.577950001,-1.229387522
10.61435051,5.824050426,-9.966000557,1.546050072,-0.6819999814,1.577950001,-1.229387522
10.63435051,5.824050426,-9.966000557,1.546050072,-0.6819999814,1.577950001,-1.229387522
10.65435051,9.883950233,-12.53205013,-4.828950405,-0.7103250027,1.108525038,-0.7715125084
10.67435051,9.883950233,-12.53205013,-4.828950405,-0.7103250027,1.108525038,-0.7715125084
10.69435051,9.883950233,-12.53205013,-4.828950405,-1.692899942,0.3091000021,-0.5776374936
10.73435051,9.883950233,-12.53205013,-4.828950405,-1.692899942,0.3091000021,-0.5776374936
10.75435051,9.883950233,-12.53205013,-4.828950405,-1.692899942,0.3091000021,-0.5776374936
10.77435051,9.883950233,-12.53205013,-4.828950405,-1.692899942,0.3091000021,-0.5776374936
10.79435051,-0.5130000114,-17.8369503,1.470000029,-0.1596374959,0.08566249907,0.5300624967
10.81435051,-0.5130000114,-17.8369503,1.470000029,-0.1596374959,0.08566249907,0.5300624967
10.83435051,-0.5130000114,-17.8369503,1.470000029,-0.1596374959,0.08566249907,0.5300624967
10.85435051,-0.5130000114,-17.8369503,1.470000029,-0.1596374959,0.08566249907,0.5300624967
10.87435051,-0.5130000114,-17.8369503,1.470000029,-0.1596374959,0.08566249907,0.5300624967
10.89435051,0.4240500331,-7.879050255,1.968000054,0.3159750104,-1.36688745,1.517724991
10.91435051,0.4240500331,-7.879050255,1.968000054,0.3159750104,-1.36688745,1.517724991
10.93435051,2.338950157,-5.964000225,-0.3480000198,1.605450034,-2.324300051,1.993612528
10.95435051,2.338950157,-5.964000225,-0.3480000198,1.605450034,-2.324300051,1.993612528
10.97435051,2.338950157,-5.964000225,-0.3480000198,1.605450034,-2.324300051,1.993612528
10.99435051,2.893950224,-4.356000423,0.7230000496,0.8953999877,-1.912075043,1.184837461
11.01435051,2.893950224,-4.356000423,0.7230000496,0.8953999877,-1.912075043,1.184837461
11.03435051,0.405000031,-4.201950073,1.470000029,0.5451874733,-1.129012465,0.4774000049
11.05435051,0.405000031,-4.201950073,1.470000029,0.5451874733,-1.129012465,0.4774000049
11.07435051,0.405000031,-4.201950073,1.470000029,0.5451874733,-1.129012465,0.4774000049
11.09435051,0.405000031,-4.201950073,1.470000029,0.5451874733,-1.129012465,0.4774000049
11.11435051,0.405000031,-4.201950073,1.470000029,0.5451874733,-1.129012465,0.4774000049
11.13435051,6.934950352,-10.23405075,-4.351050377,-0.07067500055,1.958687544,-1.868075013
11.15435051,6.934950352,-10.23405075,-4.351050377,-0.07067500055,1.958687544,-1.868075013
11.17435051,17.19900131,-16.15095139,-5.26995039,-3.020050049,2.141287565,-2.35014987
11.19435051,17.19900131,-16.15095139,-5.26995039,-3.020050049,2.141287565,-2.35014987
11.21435051,17.19900131,-16.15095139,-5.26995039,-3.020050049,2.141287565,-2.35014987
11.23435051,12.79500103,-5.734050274,-2.167950153,-2.619649887,2.826174974,-2.860412598
11.25435051,12.79500103,-5.734050274,-2.167950153,-2.619649887,2.826174974,-2.860412598
11.27435051,4.101000309,-14.1409502,3.768000126,-1.946174979,1.976012468,-1.843187451
11.29435051,4.101000309,-14.1409502,3.768000126,-1.946174979,1.976012468,-1.843187451
11.31435051,4.101000309,-14.1409502,3.768000126,-1.946174979,1.976012468,-1.843187451
11.33435051,4.101000309,-14.1409502,3.768000126,-1.946174979,1.976012468,-1.843187451
11.35435051,4.101000309,-14.1409502,3.768000126,-1.946174979,1.976012468,-1.843187451
11.37435051,-4.726050377,-4.795950413,0.109950006,-0.2103749961,0.5920749903,0.04729999974
11.39435051,-4.726050377,-4.795950413,0.109950006,-0.2103749961,0.5920749903,0.04729999974
11.41435051,-4.726050377,-4.795950413,0.109950006,-0.2103749961,0.5920749903,0.04729999974
11.43435051,-4.726050377,-4.795950413,0.109950006,-0.2103749961,0.5920749903,0.04729999974
11.45435051,-4.726050377,-4.795950413,0.109950006,-0.2103749961,0.5920749903,0.04729999974
11.47435051,-0.5899500251,-10.59795094,2.389050007,2.678637505,-3.981174946,4.319425106
11.49435051,-0.5899500251,-10.59795094,2.389050007,2.678637505,-3.981174946,4.319425106
11.51435051,2.511000156,-9.105000496,0.4360500276,1.818987489,-3.843812466,3.802150011
11.53435051,2.511000156,-9.105000496,0.4360500276,1.818987489,-3.843812466,3.802150011
11.55435051,2.511000156,-9.105000496,0.4360500276,1.818987489,-3.843812466,3.802150011
11.57435051,2.511000156,-9.105000496,0.4360500276,1.818987489,-3.843812466,3.802150011
11.59435051,2.511000156,-9.105000496,0.4360500276,1.818987489,-3.843812466,3.802150011
11.61435051,5.824050426,-9.085050583,2.311950207,0.6386874914,-0.06916250288,0.4982999861
11.63435051,5.824050426,-9.085050583,2.311950207,0.6386874914,-0.06916250288,0.4982999861
11.65435051,5.824050426,-9.085050583,2.311950207,0.184799999,3.043012381,-2.254999876
11.65435051,6.838950157,-8.3770504,1.776000142,0.184799999,3.043012381,-2.254999876
11.69435051,6.838950157,-8.3770504,1.776000142,0.184799999,3.043012381,-2.254999876
11.71435051,5.479950428,-7.879050255,-1.28700006,-1.113337517,3.378925085,-2.942087412
11.73435051,5.479950428,-7.879050255,-1.28700006,-1.113337517,3.378925085,-2.942087412
11.75435051,5.479950428,-7.879050255,-1.28700006,-1.113337517,3.378925085,-2.942087412
11.77435051,5.479950428,-7.879050255,-1.28700006,-1.113337517,3.378925085,-2.942087412
11.79435051,5.479950428,-7.879050255,-1.28700006,-1.113337517,3.378925085,-2.942087412
11.81435051,5.479950428,-7.879050255,-1.28700006,-1.113337517,3.378925085,-2.942087412
11.83435051,5.479950428,-7.879050255,-1.28700006,-1.113337517,3.378925085,-2.942087412
11.85435051,5.30700016,-9.870000839,1.564950109,-0.5403749943,1.369362473,-0.9805124998
11.87435051,5.30700016,-9.870000839,1.564950109,-0.5403749943,1.369362473,-0.9805124998
11.89435051,5.30700016,-9.870000839,1.564950109,-0.5403749943,1.369362473,-0.9805124998
11.91435051,5.30700016,-9.870000839,1.564950109,-0.5403749943,1.369362473,-0.9805124998
11.93435051,5.30700016,-9.870000839,1.564950109,-0.5403749943,1.369362473,-0.9805124998
11.95435051,3.889950275,-9.966000557,1.699050069,-1.538212538,-0.524012506,-0.1731124967
11.97435051,3.889950275,-9.966000557,1.699050069,-1.538212538,-0.524012506,-0.1731124967
11.99435051,0.3670500219,-13.29795074,3.289050102,-0.4208875,0.1343374997,0.2083124965
12.01435051,0.3670500219,-13.29795074,3.289050102,-0.4208875,0.1343374997,0.2083124965
12.03435051,0.3670500219,-13.29795074,3.289050102,-0.4208875,0.1343374997,0.2083124965
12.05435051,-0.2639999986,-20.23005104,-2.053050041,-0.1981374919,-0.2527250051,1.035374999
12.07435051,-0.2639999986,-20.23005104,-2.053050041,-0.1981374919,-0.2527250051,1.035374999
12.09435051,-2.542950153,-8.683050156,2.542050123,-0.8896250129,-1.371562481,1.27820003
12.11435051,-2.542950153,-8.683050156,2.542050123,-0.8896250129,-1.371562481,1.27820003
12.13435051,-2.542950153,-8.683050156,2.542050123,-0.8896250129,-1.371562481,1.27820003
12.15435051,-2.542950153,-8.683050156,2.542050123,-0.8896250129,-1.371562481,1.27820003
12.17435051,-2.542950153,-8.683050156,2.542050123,-0.8896250129,-1.371562481,1.27820003
12.19435051,2.014050007,-6.117000103,-0.2910000086,1.001962543,-1.519374967,1.677637458
12.21435051,2.014050007,-6.117000103,-0.2910000086,1.001962543,-1.519374967,1.677637458
12.23435051,1.630950093,-5.179050446,1.489050031,0.485924989,-1.49819994,1.03125
12.25435051,1.630950093,-5.179050446,1.489050031,0.485924989,-1.49819994,1.03125
12.27435051,1.630950093,-5.179050446,1.489050031,0.485924989,-1.49819994,1.03125
12.29435051,1.036949992,-3.589950085,1.374000072,0.08786249906,-0.6554625034,0.3366000056
12.31435051,1.036949992,-3.589950085,1.374000072,0.08786249906,-0.6554625034,0.3366000056
12.33435051,5.077050209,-5.293950081,-1.018950105,1.422987461,3.113275051,-0.8531875014
12.35435051,5.077050209,-5.293950081,-1.018950105,1.422987461,3.113275051,-0.8531875014
12.37435051,5.077050209,-5.293950081,-1.018950105,1.422987461,3.113275051,-0.8531875014
12.39435051,5.077050209,-5.293950081,-1.018950105,1.422987461,3.113275051,-0.8531875014
12.41435051,5.077050209,-5.293950081,-1.018950105,1.422987461,3.113275051,-0.8531875014
12.43435051,5.077050209,-5.293950081,-1.018950105,1.422987461,3.113275051,-0.8531875014
12.45435051,5.077050209,-5.293950081,-1.018950105,1.422987461,3.113275051,-0.8531875014
12.47435051,5.077050209,-5.293950081,-1.018950105,1.422987461,3.113275051,-0.8531875014
12.49435051,5.077050209,-5.293950081,-1.018950105,1.422987461,3.113275051,-0.8531875014
12.51435051,5.077050209,-5.293950081,-1.018950105,1.422987461,3.113275051,-0.8531875014
12.53435051,0.673050046,-11.21100044,0.378000021,-1.035925031,1.433712482,-1.516762495
12.55435051,0.673050046,-11.21100044,0.378000021,-1.035925031,1.433712482,-1.516762495
12.57435051,-0.9150000215,-12.01500034,2.407950163,-0.3924250007,0.07686249912,0.2265999913
12.59435051,-0.9150000215,-12.01500034,2.407950163,-0.3924250007,0.07686249912,0.2265999913
12.61435051,-0.9150000215,-12.01500034,2.407950163,-0.3924250007,0.07686249912,0.2265999913
12.63435051,-0.9150000215,-12.01500034,2.407950163,-0.3924250007,0.07686249912,0.2265999913
12.65435051,-0.9150000215,-12.01500034,2.407950163,-0.3924250007,0.07686249912,0.2265999913
12.67435051,1.248000026,-10.13895035,4.323000431,1.477025032,0.90337497,2.054250002
12.69435051,1.248000026,-10.13895035,4.323000431,1.477025032,0.90337497,2.054250002
12.71435051,1.248000026,-10.13895035,4.323000431,1.477025032,0.90337497,2.054250002
12.73435051,1.248000026,-10.13895035,4.323000431,1.477025032,0.90337497,2.054250002
12.75435051,1.248000026,-10.13895035,4.323000431,1.477025032,0.90337497,2.054250002
12.77435051,4.579950333,-7.975050449,-1.000050068,1.161049962,-1.259637475,2.416562557
12.79435051,4.579950333,-7.975050449,-1.000050068,1.161049962,-1.259637475,2.416562557
12.81435051,4.579950333,-7.975050449,-1.000050068,1.161049962,-1.259637475,2.416562557
12.83435051,4.579950333,-7.975050449,-1.000050068,1.161049962,-1.259637475,2.416562557
12.85435051,4.579950333,-7.975050449,-1.000050068,1.161049962,-1.259637475,2.416562557
12.87435051,4.579950333,-7.975050449,-1.000050068,1.161049962,-1.259637475,2.416562557
12.89435051,4.579950333,-7.975050449,-1.000050068,1.161049962,-1.259637475,2.416562557
12.91435051,3.75600028,-8.204999924,0.5890500546,-0.3759250045,1.572450042,-2.044487476
12.93435051,3.75600028,-8.204999924,0.5890500546,-0.3759250045,1.572450042,-2.044487476
12.95435051,3.75600028,-8.204999924,0.5890500546,-0.3759250045,1.572450042,-2.044487476
12.97435051,3.75600028,-8.204999924,0.5890500546,-0.3759250045,1.572450042,-2.044487476
12.99435051,3.75600028,-8.204999924,0.5890500546,-0.3759250045,1.572450042,-2.044487476
13.01435051,4.444950104,-10.78995037,1.909950137,-0.4402749836,0.189337492,-0.9576874971
13.03435051,4.444950104,-10.78995037,1.909950137,-0.4402749836,0.189337492,-0.9576874971
13.05435051,4.157999992,-10.3879509,1.948050141,-0.03313750029,0.3184500039,-0.3235374987
13.07435051,4.157999992,-10.3879509,1.948050141,-0.03313750029,0.3184500039,-0.3235374987
13.09435051,4.157999992,-10.3879509,1.948050141,-0.03313750029,0.3184500039,-0.3235374987
13.11435051,5.997000217,-10.02405071,-0.2910000086,-0.00838750042,0.1751749963,0.0910250023
13.13435051,5.997000217,-10.02405071,-0.2910000086,-0.00838750042,0.1751749963,0.0910250023
13.15435051,5.997000217,-10.02405071,-0.2910000086,-0.00838750042,0.1751749963,0.0910250023
13.17435051,5.997000217,-10.02405071,-0.2910000086,-0.00838750042,0.1751749963,0.0910250023
13.19435051,5.997000217,-10.02405071,-0.2910000086,-0.00838750042,0.1751749963,0.0910250023
13.21435051,5.997000217,-10.02405071,-0.2910000086,-0.00838750042,0.1751749963,0.0910250023
13.23435051,5.997000217,-10.02405071,-0.2910000086,-0.00838750042,0.1751749963,0.0910250023
13.25435051,2.301000118,-11.95800018,4.170000076,-0.7928249836,0.2571249902,-0.5303375125
13.27435051,2.301000118,-11.95800018,4.170000076,-0.7928249836,0.2571249902,-0.5303375125
13.29435051,0.4819500148,-18.75600052,2.044049978,-0.5271750093,0.6615124941,0.240624994
13.31435051,0.4819500148,-18.75600052,2.044049978,-0.5271750093,0.6615124941,0.240624994
13.33435051,0.4819500148,-18.75600052,2.044049978,-0.5271750093,0.6615124941,0.240624994
13.35435051,-1.89195013,-8.98995018,-2.416950226,-0.567324996,0.6188874841,1.047062516
13.37435051,-1.89195013,-8.98995018,-2.416950226,-0.567324996,0.6188874841,1.047062516
13.39435051,-0.45600003,-6.499950409,1.852950096,-0.1601874977,0.8644624949,1.837412477
13.41435051,-0.45600003,-6.499950409,1.852950096,-0.1601874977,0.8644624949,1.837412477
13.43435051,-0.45600003,-6.499950409,1.852950096,-0.1601874977,0.8644624949,1.837412477
13.45435051,-0.45600003,-6.499950409,1.852950096,-0.1601874977,0.8644624949,1.837412477
13.47435051,-0.45600003,-6.499950409,1.852950096,-0.1601874977,0.8644624949,1.837412477
13.49435051,-0.45600003,-6.499950409,1.852950096,-0.1601874977,0.8644624949,1.837412477
13.51435051,-0.45600003,-6.499950409,1.852950096,-0.1601874977,0.8644624949,1.837412477
13.53435051,-0.45600003,-6.499950409,1.852950096,-0.1601874977,0.8644624949,1.837412477
13.55435051,-0.45600003,-6.499950409,1.852950096,-0.1601874977,0.8644624949,1.837412477
13.57435051,-0.45600003,-6.499950409,1.852950096,-0.1601874977,0.8644624949,1.837412477
13.59435051,4.12005043,-6.040950298,-0.2910000086,0.1023000032,4.004687309,-0.7374125123
13.61435051,4.12005043,-6.040950298,-0.2910000086,0.1023000032,4.004687309,-0.7374125123
13.63435051,7.203000546,-9.813000679,-3.87195015,-0.2366375029,1.042250037,-2.166862488
13.65435051,7.203000546,-9.813000679,-3.87195015,-0.2366375029,1.042250037,-2.166862488
13.67435051,7.203000546,-9.813000679,-3.87195015,-0.2366375029,1.042250037,-2.166862488
13.69435051,7.203000546,-9.813000679,-3.87195015,-0.2366375029,1.042250037,-2.166862488
13.71435051,7.203000546,-9.813000679,-3.87195015,-0.2366375029,1.042250037,-2.166862488
13.73435051,10.76505089,-7.591950417,-3.240000248,-0.4945875108,-0.6187499762,-3.127987385
13.75435051,10.76505089,-7.591950417,-3.240000248,-0.4945875108,-0.6187499762,-3.127987385
13.77435051,10.76505089,-7.591950417,-3.240000248,-0.4945875108,-0.6187499762,-3.127987385
13.79435051,10.76505089,-7.591950417,-3.240000248,-0.4945875108,-0.6187499762,-3.127987385
13.81435051,10.76505089,-7.591950417,-3.240000248,-0.4945875108,-0.6187499762,-3.127987385
13.83435051,0.5970000029,-12.34095097,0.378000021,-0.3590124846,-0.4945875108,-0.9259250164
13.85435051,0.5970000029,-12.34095097,0.378000021,-0.3590124846,-0.4945875108,-0.9259250164
13.87435051,0.5970000029,-12.34095097,0.378000021,-0.3590124846,-0.4945875108,-0.9259250164
13.89435051,0.5970000029,-12.34095097,0.378000021,-0.3590124846,-0.4945875108,-0.9259250164
13.91435051,0.5970000029,-12.34095097,0.378000021,-0.3590124846,-0.4945875108,-0.9259250164
13.93435051,0.5970000029,-12.34095097,0.378000021,-0.3590124846,-0.4945875108,-0.9259250164
13.95435051,0.5970000029,-12.34095097,0.378000021,-0.3590124846,-0.4945875108,-0.9259250164
13.97435051,1.228050113,-10.15800095,4.534049988,0.4127750099,2.333512545,3.228499889
13.99435051,1.228050113,-10.15800095,4.534049988,0.4127750099,2.333512545,3.228499889
14.01435051,2.109000206,-9.775050163,2.464950085,0.6287875175,3.504324913,2.626112461
14.03435051,2.109000206,-9.775050163,2.464950085,0.6287875175,3.504324913,2.626112461
14.05435051,2.109000206,-9.775050163,2.464950085,0.6287875175,3.504324913,2.626112461
14.07435051,3.985950232,-8.3770504,0.8569500446,0.463925004,2.331587553,1.506037474
14.09435051,3.985950232,-8.3770504,0.8569500446,0.463925004,2.331587553,1.506037474
14.11435051,3.985950232,-8.3770504,0.8569500446,0.463925004,2.331587553,1.506037474
14.13435051,3.985950232,-8.3770504,0.8569500446,0.463925004,2.331587553,1.506037474
14.15435051,3.985950232,-8.3770504,0.8569500446,0.463925004,2.331587553,1.506037474
14.17435051,4.885950089,-8.511000633,1.105949998,0.5391374826,-0.6363499761,-1.054625034
14.19435051,4.885950089,-8.511000633,1.105949998,0.5391374826,-0.6363499761,-1.054625034
14.21435051,3.69900012,-8.664000511,1.08705008,0.2012999952,-1.407999992,-1.068787456
14.23435051,3.69900012,-8.664000511,1.08705008,0.2012999952,-1.407999992,-1.068787456
14.25435051,3.69900012,-8.664000511,1.08705008,0.2012999952,-1.407999992,-1.068787456
14.27435051,3.69900012,-8.664000511,1.08705008,0.2012999952,-1.407999992,-1.068787456
14.29435051,3.69900012,-8.664000511,1.08705008,0.2012999952,-1.407999992,-1.068787456
14.31435051,4.33095026,-10.09995079,1.470000029,0.07796250284,-1.222787499,-0.726549983
14.33435051,4.33095026,-10.09995079,1.470000029,0.07796250284,-1.222787499,-0.726549983
14.35435051,6.016050339,-9.277050018,0.3589500189,0.1171500012,-0.6884624958,-0.356674999
14.37435051,6.016050339,-9.277050018,0.3589500189,0.1171500012,-0.6884624958,-0.356674999
14.39435051,6.016050339,-9.277050018,0.3589500189,0.1171500012,-0.6884624958,-0.356674999
14.41435051,9.67305088,-13.27905083,-5.212050438,-0.0567874983,-0.4899125099,-0.3425124884
14.43435051,9.67305088,-13.27905083,-5.212050438,-0.0567874983,-0.4899125099,-0.3425124884
14.45435051,9.67305088,-13.27905083,-5.212050438,-0.0567874983,-0.4899125099,-0.3425124884
14.47435051,9.67305088,-13.27905083,-5.212050438,-0.0567874983,-0.4899125099,-0.3425124884
14.49435051,9.67305088,-13.27905083,-5.212050438,-0.0567874983,-0.4899125099,-0.3425124884
14.51435051,9.67305088,-13.27905083,-5.212050438,-0.0567874983,-0.4899125099,-0.3425124884
14.53435051,9.67305088,-13.27905083,-5.212050438,-0.0567874983,-0.4899125099,-0.3425124884
14.55435051,0.2899500132,-16.70700073,2.868000031,-0.5458750129,0.7983250022,0.4542999864
14.57435051,0.2899500132,-16.70700073,2.868000031,-0.5458750129,0.7983250022,0.4542999864
14.59435051,0.2899500132,-16.70700073,2.868000031,-0.5458750129,0.7983250022,0.4542999864
14.61435051,0.2899500132,-16.70700073,2.868000031,-0.5458750129,0.7983250022,0.4542999864
14.63435051,0.2899500132,-16.70700073,2.868000031,-0.5458750129,0.7983250022,0.4542999864
14.65435051,0.2899500132,-6.442950249,0.244050011,-0.9982500076,1.976287484,1.399612546
14.67435051,0.2899500132,-6.442950249,0.244050011,-0.9982500076,1.976287484,1.399612546
14.69435051,1.993950129,-6.844950199,0.7039500475,-0.2980999947,3.949137449,1.478950024
14.71435051,1.993950129,-6.844950199,0.7039500475,-0.2980999947,3.949137449,1.478950024
14.73435051,1.993950129,-6.844950199,0.7039500475,-0.2980999947,3.949137449,1.478950024
14.75435051,1.993950129,-6.844950199,0.7039500475,-0.2980999947,3.949137449,1.478950024
14.77435051,1.993950129,-6.844950199,0.7039500475,-0.2980999947,3.949137449,1.478950024
14.79435051,2.089950085,-5.332050323,0.03405000269,-1.019012451,2.133312464,-0.02076249942
14.81435051,2.089950085,-5.332050323,0.03405000269,-1.019012451,2.133312464,-0.02076249942
14.83435051,2.089950085,-5.332050323,0.03405000269,-1.019012451,2.133312464,-0.02076249942
14.85435051,2.089950085,-5.332050323,0.03405000269,-1.019012451,2.133312464,-0.02076249942
14.87435051,2.089950085,-5.332050323,0.03405000269,-1.019012451,2.133312464,-0.02076249942
14.89435051,1.95600009,-6.289950371,-0.5209500194,-0.02997500077,1.541649938,-0.3697375059
14.91435051,1.95600009,-6.289950371,-0.5209500194,-0.02997500077,1.541649938,-0.3697375059
14.93435051,10.07505035,-13.6810503,-15.80205059,-0.04166249931,0.2905375063,-0.5975750089
14.95435051,10.07505035,-13.6810503,-15.80205059,-0.04166249931,0.2905375063,-0.5975750089
14.97435051,10.07505035,-13.6810503,-15.80205059,-0.04166249931,0.2905375063,-0.5975750089
14.99435051,10.07505035,-13.6810503,-15.80205059,-0.04166249931,0.2905375063,-0.5975750089
15.01435051,10.07505035,-13.6810503,-15.80205059,-0.04166249931,0.2905375063,-0.5975750089
15.03435051,10.07505035,-13.6810503,-15.80205059,-0.04166249931,0.2905375063,-0.5975750089
15.05435051,10.07505035,-13.6810503,-15.80205059,-0.04166249931,0.2905375063,-0.5975750089
15.07435051,3.354000092,-12.49395084,-6.514050484,0.3678124845,-1.554574966,-1.480187535
15.09435051,3.354000092,-12.49395084,-6.514050484,0.3678124845,-1.554574966,-1.480187535
15.11435051,3.354000092,-12.49395084,-6.514050484,0.3678124845,-1.554574966,-1.480187535
15.13435051,0.8260500431,-7.936050415,2.062950134,0.721050024,-0.1577125043,-0.7013875246
15.15435051,0.8260500431,-7.936050415,2.062950134,0.721050024,-0.1577125043,-0.7013875246
15.17435051,0.8260500431,-7.936050415,2.062950134,0.721050024,-0.1577125043,-0.7013875246
15.19435051,0.8260500431,-7.936050415,2.062950134,0.721050024,-0.1577125043,-0.7013875246
15.21435051,0.8260500431,-7.936050415,2.062950134,0.721050024,-0.1577125043,-0.7013875246
15.23435051,0.4429500103,-11.03895092,4.03605032,1.57396245,2.812562466,0.7743999958
15.25435051,0.4429500103,-11.03895092,4.03605032,1.57396245,2.812562466,0.7743999958
15.27435051,-0.9340500236,-9.352950096,-3.526950121,0.5480750203,3.383187532,2.368025064
15.29435051,-0.9340500236,-9.352950096,-3.526950121,0.5480750203,3.383187532,2.368025064
15.31435051,-0.9340500236,-9.352950096,-3.526950121,0.5480750203,3.383187532,2.368025064
15.33435051,-0.9340500236,-9.352950096,-3.526950121,0.5480750203,3.383187532,2.368025064
15.35435051,-0.9340500236,-9.352950096,-3.526950121,0.5480750203,3.383187532,2.368025064
15.37435051,4.042950153,-8.3770504,3.211950064,-0.193187505,1.050225019,1.269812465
15.39435051,4.042950153,-8.3770504,3.211950064,-0.193187505,1.050225019,1.269812465
15.41435051,4.042950153,-8.3770504,3.211950064,-0.193187505,1.050225019,1.269812465
15.43435051,4.042950153,-8.3770504,3.211950064,-0.193187505,1.050225019,1.269812465
15.45435051,4.042950153,-8.3770504,3.211950064,-0.193187505,1.050225019,1.269812465
15.47435051,3.985950232,-7.936050415,-0.751050055,-0.04427500069,-1.728787541,-0.5772249699
15.49435051,3.985950232,-7.936050415,-0.751050055,-0.04427500069,-1.728787541,-0.5772249699
15.51435051,2.397000074,-7.879050255,2.140050173,-0.06022499874,-2.138400078,-0.8690000176
15.53435051,2.397000074,-7.879050255,2.140050173,-0.06022499874,-2.138400078,-0.8690000176
15.55435051,2.397000074,-7.879050255,2.140050173,-0.06022499874,-2.138400078,-0.8690000176
15.57435051,2.397000074,-7.879050255,2.140050173,-0.06022499874,-2.138400078,-0.8690000176
15.59435051,2.397000074,-7.879050255,2.140050173,-0.06022499874,-2.138400078,-0.8690000176
15.61435051,5.556000233,-10.56000042,1.680000067,0.4173125029,-1.042250037,-0.6430875063
15.63435051,5.556000233,-10.56000042,1.680000067,0.4173125029,-1.042250037,-0.6430875063
15.65435051,5.556000233,-10.56000042,1.680000067,0.4173125029,-1.042250037,-0.6430875063
15.67435051,5.556000233,-10.56000042,1.680000067,0.4173125029,-1.042250037,-0.6430875063
15.69435051,5.556000233,-10.56000042,1.680000067,0.4173125029,-1.042250037,-0.6430875063
15.71435051,7.969050407,-10.80900097,-1.440000057,0.09006249905,-0.9678624868,-0.1755875051
15.73435051,7.969050407,-10.80900097,-1.440000057,0.09006249905,-0.9678624868,-0.1755875051
15.75435051,7.720050335,-10.77000046,-1.879950047,-0.2851749957,-1.341037512,-0.5941374898
15.77435051,7.720050335,-10.77000046,-1.879950047,-0.2851749957,-1.341037512,-0.5941374898
15.79435051,7.720050335,-10.77000046,-1.879950047,-0.2851749957,-1.341037512,-0.5941374898
15.81435051,7.720050335,-10.77000046,-1.879950047,-0.2851749957,-1.341037512,-0.5941374898
15.83435051,7.720050335,-10.77000046,-1.879950047,-0.2851749957,-1.341037512,-0.5941374898
15.85435051,1.093950033,-16.24695015,1.776000142,-0.1870000064,0.05761250108,-0.06022499874
15.87435051,1.093950033,-16.24695015,1.776000142,-0.1870000064,0.05761250108,-0.06022499874
15.89435051,1.093950033,-16.24695015,1.776000142,-0.1870000064,0.05761250108,-0.06022499874
15.91435051,1.093950033,-16.24695015,1.776000142,-0.1870000064,0.05761250108,-0.06022499874
15.93435051,1.093950033,-16.24695015,1.776000142,-0.1870000064,0.05761250108,-0.06022499874
15.95435051,0.8449500203,-8.530050278,1.489050031,-0.8434249759,1.1171875,0.7822374701
15.97435051,0.8449500203,-8.530050278,1.489050031,-0.8434249759,1.1171875,0.7822374701
15.99435051,2.72205019,-7.897950172,0.1680000126,-0.4239124954,2.728825092,1.105912447
16.01435051,2.72205019,-7.897950172,0.1680000126,-0.4239124954,2.728825092,1.105912447
16.03435051,2.72205019,-7.897950172,0.1680000126,-0.4239124954,2.728825092,1.105912447
16.05435051,2.72205019,-7.897950172,0.1680000126,-0.4239124954,2.728825092,1.105912447
16.07435051,2.72205019,-7.897950172,0.1680000126,-0.4239124954,2.728825092,1.105912447
16.09435051,-0.0540000014,-5.868000507,0.511950016,-1.041562438,1.595687509,0.3113000095
16.11435051,-0.0540000014,-5.868000507,0.511950016,-1.041562438,1.595687509,0.3113000095
16.13435051,-0.0540000014,-5.868000507,0.511950016,-1.041562438,1.595687509,0.3113000095
16.15435051,-0.0540000014,-5.868000507,0.511950016,-1.041562438,1.595687509,0.3113000095
16.17435051,-0.0540000014,-5.868000507,0.511950016,-1.041562438,1.595687509,0.3113000095
16.19435051,8.160000801,-9.162000656,-3.087000132,-0.5948249698,0.5989499688,0.02901249938
16.21435051,8.160000801,-9.162000656,-3.087000132,-0.5948249698,0.5989499688,0.02901249938
16.23435051,8.160000801,-9.162000656,-3.087000132,-0.5948249698,0.5989499688,0.02901249938
16.25435051,8.160000801,-9.162000656,-3.087000132,-0.5948249698,0.5989499688,0.02901249938
16.27435051,8.160000801,-9.162000656,-3.087000132,-0.5948249698,0.5989499688,0.02901249938
16.29435051,7.797000408,-4.528050423,2.140050173,0.3726249933,-2.620887518,-3.056624889
16.31435051,7.797000408,-4.528050423,2.140050173,0.3726249933,-2.620887518,-3.056624889
16.33435051,1.573050022,-10.3879509,-2.071950197,0.7272375226,-0.9699249864,-1.974362493
16.35435051,1.573050022,-10.3879509,-2.071950197,0.7272375226,-0.9699249864,-1.974362493
16.37435051,1.573050022,-10.3879509,-2.071950197,0.7272375226,-0.9699249864,-1.974362493
16.39435051,1.573050022,-10.3879509,-2.071950197,0.7272375226,-0.9699249864,-1.974362493
16.41435051,1.573050022,-10.3879509,-2.071950197,0.7272375226,-0.9699249864,-1.974362493
16.43435051,1.573050022,-10.3879509,-2.071950197,0.7272375226,-0.9699249864,-1.974362493
16.45435051,1.573050022,-10.3879509,-2.071950197,0.7272375226,-0.9699249864,-1.974362493
16.47435051,-1.26000011,-5.275050163,5.338050365,0.1795749962,1.44471252,2.246337414
16.49435051,-1.26000011,-5.275050163,5.338050365,0.1795749962,1.44471252,2.246337414
16.51435051,-1.26000011,-5.275050163,5.338050365,0.1795749962,1.44471252,2.246337414
16.53435051,2.491950035,-11.49795055,3.480000257,0.4182749987,4.889912605,3.889737368
16.55435051,2.491950035,-11.49795055,3.480000257,0.4182749987,4.889912605,3.889737368
16.57435051,2.491950035,-11.49795055,3.480000257,0.4182749987,4.889912605,3.889737368
16.59435051,2.491950035,-11.49795055,3.480000257,0.4182749987,4.889912605,3.889737368
16.61435051,2.491950035,-11.49795055,3.480000257,0.4182749987,4.889912605,3.889737368
16.63435051,2.491950035,-11.49795055,3.480000257,0.4182749987,4.889912605,3.889737368
16.65435051,2.491950035,-11.49795055,3.480000257,0.4182749987,4.889912605,3.889737368
16.67435051,5.038950443,-9.315000534,3.117000103,1.391775012,-0.352412492,-0.4411000013
16.69435051,5.038950443,-9.315000534,3.117000103,1.391775012,-0.352412492,-0.4411000013
16.71435051,5.038950443,-9.315000534,3.117000103,1.391775012,-0.352412492,-0.4411000013
16.73435051,5.038950443,-9.315000534,3.117000103,1.391775012,-0.352412492,-0.4411000013
16.75435051,5.038950443,-9.315000534,3.117000103,1.391775012,-0.352412492,-0.4411000013
16.77435051,4.216050148,-9.028050423,-0.1759500057,0.30043751,-2.675199986,-1.376649976
16.79435051,4.216050148,-9.028050423,-0.1759500057,0.30043751,-2.675199986,-1.376649976
16.81435051,3.660000086,-9.411000252,0.8380500674,0.2538250089,-2.30202508,-1.010212541
16.83435051,3.660000086,-9.411000252,0.8380500674,0.2538250089,-2.30202508,-1.010212541
16.85435051,3.660000086,-9.411000252,0.8380500674,0.2538250089,-2.30202508,-1.010212541
16.87435051,3.660000086,-9.411000252,0.8380500674,0.2538250089,-2.30202508,-1.010212541
16.89435051,3.660000086,-9.411000252,0.8380500674,0.2538250089,-2.30202508,-1.010212541
16.91435051,2.856000185,-10.4449501,2.982000113,0.6403374672,-0.5355625153,0.05004999787
16.93435051,2.856000185,-10.4449501,2.982000113,0.6403374672,-0.5355625153,0.05004999787
16.95435051,2.856000185,-10.4449501,2.982000113,0.6403374672,-0.5355625153,0.05004999787
16.97435051,2.856000185,-10.4449501,2.982000113,0.6403374672,-0.5355625153,0.05004999787
16.99435051,2.856000185,-10.4449501,2.982000113,0.6403374672,-0.5355625153,0.05004999787
17.01435051,6.916050434,-10.59795094,-2.80005002,0.2293500006,-0.3132250011,0.5077875257
17.03435051,6.916050434,-10.59795094,-2.80005002,0.2293500006,-0.3132250011,0.5077875257
17.05435051,6.8770504,-8.98995018,-0.5590500236,-0.00192499999,-0.5941374898,-0.03011249937
17.07435051,6.8770504,-8.98995018,-0.5590500236,-0.00192499999,-0.5941374898,-0.03011249937
17.09435051,6.8770504,-8.98995018,-0.5590500236,-0.00192499999,-0.5941374898,-0.03011249937
17.11435051,6.8770504,-8.98995018,-0.5590500236,-0.00192499999,-0.5941374898,-0.03011249937
17.13435051,6.8770504,-8.98995018,-0.5590500236,-0.00192499999,-0.5941374898,-0.03011249937
17.15435051,-1.126049995,-13.08795071,1.8910501,-0.3533749878,-0.01388750039,-0.2224749923
17.17435051,-1.126049995,-13.08795071,1.8910501,-0.3533749878,-0.01388750039,-0.2224749923
17.19435051,-1.126049995,-13.08795071,1.8910501,-0.3533749878,-0.01388750039,-0.2224749923
17.21435051,-1.126049995,-13.08795071,1.8910501,-0.3533749878,-0.01388750039,-0.2224749923
17.23435051,-1.126049995,-13.08795071,1.8910501,-0.3533749878,-0.01388750039,-0.2224749923
17.25435051,-1.126049995,-13.08795071,1.8910501,-0.3533749878,-0.01388750039,-0.2224749923
17.27435051,-1.126049995,-13.08795071,1.8910501,-0.3533749878,-0.01388750039,-0.2224749923
17.29435051,-1.126049995,-13.08795071,1.8910501,-0.3533749878,-0.01388750039,-0.2224749923
17.31435051,-1.126049995,-13.08795071,1.8910501,-0.3533749878,-0.01388750039,-0.2224749923
17.33435051,-1.126049995,-13.08795071,1.8910501,-0.3533749878,-0.01388750039,-0.2224749923
17.35435051,1.611000061,-7.132050514,0.378000021,0.05169999972,4.021049976,1.707612514
17.37435051,1.611000061,-7.132050514,0.378000021,0.05169999972,4.021049976,1.707612514
17.39435051,4.407000065,-8.491950035,-2.053050041,-0.3422375023,2.746974945,0.9421499968
17.41435051,4.407000065,-8.491950035,-2.053050041,-0.3422375023,2.746974945,0.9421499968
17.43435051,4.407000065,-8.491950035,-2.053050041,-0.3422375023,2.746974945,0.9421499968
17.45435051,4.407000065,-8.491950035,-2.053050041,-0.3422375023,2.746974945,0.9421499968
17.47435051,4.407000065,-8.491950035,-2.053050041,-0.3422375023,2.746974945,0.9421499968
17.49435051,6.169050217,-7.648950577,3.805950165,-1.042387486,-2.543337584,-2.70668745
17.51435051,6.169050217,-7.648950577,3.805950165,-1.042387486,-2.543337584,-2.70668745
17.53435051,2.607000113,-10.08105087,-2.187000036,-0.2495625019,-1.620574951,-2.607549906
17.55435051,2.607000113,-10.08105087,-2.187000036,-0.2495625019,-1.620574951,-2.607549906
17.57435051,2.607000113,-10.08105087,-2.187000036,-0.2495625019,-1.620574951,-2.607549906
17.59435051,1.189950109,-9.29595089,2.236050129,-0.3683624864,-1.109762549,-1.394112468
17.61435051,1.189950109,-9.29595089,2.236050129,-0.3683624864,-1.109762549,-1.394112468
17.63435051,1.189950109,-9.29595089,2.236050129,-0.3683624864,-1.109762549,-1.394112468
17.65435051,1.189950109,-9.29595089,2.236050129,-0.3683624864,-1.109762549,-1.394112468
17.67435051,1.189950109,-9.29595089,2.236050129,-0.3683624864,-1.109762549,-1.394112468
17.69435051,1.189950109,-9.29595089,2.236050129,-0.3683624864,-1.109762549,-1.394112468
17.71435051,1.189950109,-9.29595089,2.236050129,-0.3683624864,-1.109762549,-1.394112468
17.73435051,4.771050453,-8.836050034,-1.075950027,0.2723875046,1.562274933,0.6399250031
17.75435051,4.771050453,-8.836050034,-1.075950027,0.2723875046,1.562274933,0.6399250031
17.77435051,4.771050453,-8.836050034,-1.075950027,-0.1666499972,0.8403999805,0.6150375009
17.81435051,4.771050453,-8.836050034,-1.075950027,-0.1666499972,0.8403999805,0.6150375009
17.83435051,5.689950466,-8.701950073,-1.018950105,0.04688749835,0.2371875048,-0.1593624949
17.85435051,5.689950466,-8.701950073,-1.018950105,0.04688749835,0.2371875048,-0.1593624949
17.87435051,5.173050404,-8.626049995,-0.7890000343,-0.006599999964,-0.6061000228,-0.9286749959
17.89435051,5.173050404,-8.626049995,-0.7890000343,-0.006599999964,-0.6061000228,-0.9286749959
17.91435051,5.173050404,-8.626049995,-0.7890000343,-0.006599999964,-0.6061000228,-0.9286749959
17.93435051,5.173050404,-8.626049995,-0.7890000343,-0.006599999964,-0.6061000228,-0.9286749959
17.95435051,5.173050404,-8.626049995,-0.7890000343,-0.006599999964,-0.6061000228,-0.9286749959
17.97435051,3.622050285,-8.740950584,-0.3679500222,0.0246124994,-0.3159750104,-0.4442625046
17.99435051,3.622050285,-8.740950584,-0.3679500222,0.0246124994,-0.3159750104,-0.4442625046
18.01435051,3.622050285,-8.740950584,-0.3679500222,0.0246124994,-0.3159750104,-0.4442625046
18.03435051,3.622050285,-8.740950584,-0.3679500222,0.0246124994,-0.3159750104,-0.4442625046
18.05435051,3.622050285,-8.740950584,-0.3679500222,0.0246124994,-0.3159750104,-0.4442625046
18.07435051,3.181950092,-6.997950554,-0.9799500704,-0.08222500235,-0.09308750182,0.1817750037
18.09435051,3.181950092,-6.997950554,-0.9799500704,-0.08222500235,-0.09308750182,0.1817750037
18.11435051,6.838950157,-8.032050133,-3.469950199,-0.04166249931,-0.06063750014,0.3295874894
18.13435051,6.838950157,-8.032050133,-3.469950199,-0.04166249931,-0.06063750014,0.3295874894
18.15435051,6.838950157,-8.032050133,-3.469950199,-0.04166249931,-0.06063750014,0.3295874894
18.17435051,6.838950157,-8.032050133,-3.469950199,-0.04166249931,-0.06063750014,0.3295874894
18.19435051,6.838950157,-8.032050133,-3.469950199,-0.04166249931,-0.06063750014,0.3295874894
18.21435051,5.326050282,-8.607000351,-3.451050282,0.1377750039,-1.001824975,-0.8672124743
18.23435051,5.326050282,-8.607000351,-3.451050282,0.1377750039,-1.001824975,-0.8672124743
18.25435051,5.593950272,-9.065999985,-3.757050276,-0.01099999994,-1.530375004,-0.9175375104
18.27435051,5.593950272,-9.065999985,-3.757050276,-0.01099999994,-1.530375004,-0.9175375104
18.29435051,5.593950272,-9.065999985,-3.757050276,-0.01099999994,-1.530375004,-0.9175375104
18.31435051,6.265050411,-5.887050152,0.7990500331,0.2063875049,-1.297999978,-1.105499983
18.33435051,6.265050411,-5.887050152,0.7990500331,0.2063875049,-1.297999978,-1.105499983
18.35435051,6.265050411,-5.887050152,0.7990500331,0.2063875049,-1.297999978,-1.105499983
18.37435051,6.265050411,-5.887050152,0.7990500331,0.2063875049,-1.297999978,-1.105499983
18.39435051,6.265050411,-5.887050152,0.7990500331,0.2063875049,-1.297999978,-1.105499983
18.41435051,1.381950021,-8.587050438,-3.010050058,0.4531999826,-0.7160999775,0.08291249722
18.43435051,1.381950021,-8.587050438,-3.010050058,0.4531999826,-0.7160999775,0.08291249722
18.45435051,1.381950021,-8.587050438,-3.010050058,0.4531999826,-0.7160999775,0.08291249722
18.47435051,1.381950021,-8.587050438,-3.010050058,0.4531999826,-0.7160999775,0.08291249722
18.49435051,1.381950021,-8.587050438,-3.010050058,0.4531999826,-0.7160999775,0.08291249722
18.51435051,1.381950021,-8.587050438,-3.010050058,0.4531999826,-0.7160999775,0.08291249722
18.53435051,1.381950021,-8.587050438,-3.010050058,0.4531999826,-0.7160999775,0.08291249722
18.55435051,0.8650500178,-9.334050179,-2.551050186,-0.06558749825,-1.413499951,1.46973753
18.57435051,0.8650500178,-9.334050179,-2.551050186,-0.06558749825,-1.413499951,1.46973753
18.59435051,4.483950138,-7.438950539,-2.895000219,-0.0309375003,-1.350112438,1.469187498
18.61435051,4.483950138,-7.438950539,-2.895000219,-0.0309375003,-1.350112438,1.469187498
18.63435051,4.483950138,-7.438950539,-2.895000219,-0.0309375003,-1.350112438,1.469187498
18.65435051,7.911000252,-14.75400066,-1.018950105,-0.01443750039,-1.257162452,0.5381749868
18.67435051,7.911000252,-14.75400066,-1.018950105,-0.01443750039,-1.257162452,0.5381749868
18.69435051,8.026050568,-8.262000084,-1.038000107,1.137812495,1.366337538,-0.3129499853
18.71435051,8.026050568,-8.262000084,-1.038000107,1.137812495,1.366337538,-0.3129499853
18.73435051,8.026050568,-8.262000084,-1.038000107,1.137812495,1.366337538,-0.3129499853
18.75435051,8.026050568,-8.262000084,-1.038000107,1.137812495,1.366337538,-0.3129499853
18.77435051,8.026050568,-8.262000084,-1.038000107,1.137812495,1.366337538,-0.3129499853
18.79435051,8.026050568,-8.262000084,-1.038000107,1.137812495,1.366337538,-0.3129499853
18.81435051,8.026050568,-8.262000084,-1.038000107,1.137812495,1.366337538,-0.3129499853
18.83435051,8.026050568,-8.262000084,-1.038000107,1.137812495,1.366337538,-0.3129499853
18.85435051,8.026050568,-8.262000084,-1.038000107,1.137812495,1.366337538,-0.3129499853
18.87435051,8.026050568,-8.262000084,-1.038000107,1.137812495,1.366337538,-0.3129499853
18.89435051,0.1750500053,-8.913000107,-2.991000175,1.032899976,1.85405004,0.2899875045
18.91435051,0.1750500053,-8.913000107,-2.991000175,1.032899976,1.85405004,0.2899875045
18.93435051,1.5160501,-8.950950623,1.52700007,-0.0808499977,0.8456249833,1.245612502
18.95435051,1.5160501,-8.950950623,1.52700007,-0.0808499977,0.8456249833,1.245612502
18.97435051,1.5160501,-8.950950623,1.52700007,-0.0808499977,0.8456249833,1.245612502
18.99435051,1.5160501,-8.950950623,1.52700007,-0.0808499977,0.8456249833,1.245612502
19.01435051,1.5160501,-8.950950623,1.52700007,-0.0808499977,0.8456249833,1.245612502
19.03435051,2.856000185,-8.262000084,1.75695014,-0.08181250095,0.0859375,0.9337624907
19.05435051,2.856000185,-8.262000084,1.75695014,-0.08181250095,0.0859375,0.9337624907
19.07435051,2.856000185,-8.262000084,1.75695014,-0.08181250095,0.0859375,0.9337624907
19.09435051,2.856000185,-8.262000084,1.75695014,-0.08181250095,0.0859375,0.9337624907
19.11435051,2.856000185,-8.262000084,1.75695014,-0.08181250095,0.0859375,0.9337624907
19.13435051,5.30700016,-9.756000519,0.378000021,0.188787505,-0.4199250042,-0.1570249945
19.15435051,5.30700016,-9.756000519,0.378000021,0.188787505,-0.4199250042,-0.1570249945
19.17435051,5.269050121,-10.31100082,0.5509500504,0.4089249969,-0.5238749981,-0.9519125223
19.19435051,5.269050121,-10.31100082,0.5509500504,0.4089249969,-0.5238749981,-0.9519125223
19.21435051,5.269050121,-10.31100082,0.5509500504,0.4089249969,-0.5238749981,-0.9519125223
19.23435051,5.269050121,-10.31100082,0.5509500504,0.4089249969,-0.5238749981,-0.9519125223
19.25435051,5.269050121,-10.31100082,0.5509500504,0.4089249969,-0.5238749981,-0.9519125223
19.27435051,7.240950108,-10.04295063,-1.095000029,0.2421374917,-0.2600125074,-1.171087503
19.29435051,7.240950108,-10.04295063,-1.095000029,0.2421374917,-0.2600125074,-1.171087503
19.31435051,7.240950108,-10.04295063,-1.095000029,-0.4680500031,-0.8948500156,-1.050775051
19.33435051,7.240950108,-10.04295063,-1.095000029,-0.4680500031,-0.8948500156,-1.050775051
19.35435051,7.240950108,-10.04295063,-1.095000029,-0.4680500031,-0.8948500156,-1.050775051
19.37435051,1.879950047,-11.74695015,1.852950096,-0.9378874898,-0.980237484,-0.3400374949
19.39435051,1.879950047,-11.74695015,1.852950096,-0.9378874898,-0.980237484,-0.3400374949
19.41435051,1.879950047,-11.74695015,1.852950096,-0.9378874898,-0.980237484,-0.3400374949
19.43435051,1.879950047,-11.74695015,1.852950096,-0.9378874898,-0.980237484,-0.3400374949
19.45435051,1.879950047,-11.74695015,1.852950096,-0.9378874898,-0.980237484,-0.3400374949
19.47435051,-2.428050041,-11.34495068,-2.685000181,-1.18827498,1.233374953,1.595412493
19.49435051,-2.428050041,-11.34495068,-2.685000181,-1.18827498,1.233374953,1.595412493
19.51435051,-2.428050041,-11.34495068,-2.685000181,-1.18827498,1.233374953,1.595412493
19.53435051,-2.428050041,-11.34495068,-2.685000181,-1.18827498,1.233374953,1.595412493
19.55435051,-2.428050041,-11.34495068,-2.685000181,-1.18827498,1.233374953,1.595412493
19.57435051,-2.428050041,-11.34495068,-2.685000181,-1.18827498,1.233374953,1.595412493
19.59435051,-2.428050041,-11.34495068,-2.685000181,-1.18827498,1.233374953,1.595412493
19.61435051,2.416050196,-7.477050304,1.52700007,-0.1384624988,4.432724953,1.606824994
19.63435051,2.416050196,-7.477050304,1.52700007,-0.1384624988,4.432724953,1.606824994
19.65435051,2.052000046,-5.926050186,0.05295000225,-0.180537492,3.615287542,0.807675004
19.67435051,2.052000046,-5.926050186,0.05295000225,-0.180537492,3.615287542,0.807675004
19.69435051,2.052000046,-5.926050186,0.05295000225,-0.180537492,3.615287542,0.807675004
19.71435051,3.162000179,-5.332050323,1.144050002,-0.1377750039,2.156687498,-0.5559124947
19.73435051,3.162000179,-5.332050323,1.144050002,-0.1377750039,2.156687498,-0.5559124947
19.75435051,7.528050423,-6.883050442,-1.248000026,0.468187511,0.7990124822,-2.026887417
19.77435051,7.528050423,-6.883050442,-1.248000026,0.468187511,0.7990124822,-2.026887417
19.79435051,7.528050423,-6.883050442,-1.248000026,0.468187511,0.7990124822,-2.026887417
19.81435051,7.528050423,-6.883050442,-1.248000026,0.468187511,0.7990124822,-2.026887417
19.83435051,7.528050423,-6.883050442,-1.248000026,0.468187511,0.7990124822,-2.026887417
19.85435051,7.528050423,-6.883050442,-1.248000026,0.468187511,0.7990124822,-2.026887417
19.87435051,7.528050423,-6.883050442,-1.248000026,0.468187511,0.7990124822,-2.026887417
19.89435051,7.528050423,-6.883050442,-1.248000026,0.468187511,0.7990124822,-2.026887417
19.91435051,7.528050423,-6.883050442,-1.248000026,0.468187511,0.7990124822,-2.026887417
19.93435051,7.528050423,-6.883050442,-1.248000026,0.468187511,0.7990124822,-2.026887417
19.95435051,0.7500000596,-14.25600052,0.3210000098,-0.2353999913,-0.6747124791,-1.214125037
19.97435051,0.7500000596,-14.25600052,0.3210000098,-0.2353999913,-0.6747124791,-1.214125037
19.99435051,0.9600000381,-10.13895035,4.609950066,-0.7002875209,0.9979749918,0.8351749778
20.01435051,0.9600000381,-10.13895035,4.609950066,-0.7002875209,0.9979749918,0.8351749778
20.03435051,0.9600000381,-10.13895035,4.609950066,-0.7002875209,0.9979749918,0.8351749778
20.05435051,0.9600000381,-10.13895035,4.609950066,-0.7002875209,0.9979749918,0.8351749778
20.07435051,0.9600000381,-10.13895035,4.609950066,-0.7002875209,0.9979749918,0.8351749778
20.09435051,0.9600000381,-9.258000374,3.556950092,0.0009624999948,3.490437508,2.754812479
20.11435051,0.9600000381,-9.258000374,3.556950092,0.0009624999948,3.490437508,2.754812479
20.13435051,1.975050092,-9.697950363,2.062950134,0.9112125039,3.3197999,2.666949987
20.15435051,1.975050092,-9.697950363,2.062950134,0.9112125039,3.3197999,2.666949987
20.17435051,1.975050092,-9.697950363,2.062950134,0.9112125039,3.3197999,2.666949987
20.19435051,3.775050163,-9.315000534,-0.2910000086,0.5449125171,2.257612467,1.598162532
20.21435051,3.775050163,-9.315000534,-0.2910000086,0.5449125171,2.257612467,1.598162532
20.23435051,3.775050163,-9.315000534,-0.2910000086,0.5449125171,2.257612467,1.598162532
20.25435051,3.775050163,-9.315000534,-0.2910000086,0.5449125171,2.257612467,1.598162532
20.27435051,3.775050163,-9.315000534,-0.2910000086,0.5449125171,2.257612467,1.598162532
20.29435051,3.775050163,-9.315000534,-0.2910000086,0.5449125171,2.257612467,1.598162532
20.31435051,3.775050163,-9.315000534,-0.2910000086,0.5449125171,2.257612467,1.598162532
20.33435051,4.579950333,-7.917000294,1.144050002,0.4054875076,-1.044862509,-1.264174938
20.35435051,4.579950333,-7.917000294,1.144050002,0.4054875076,-1.044862509,-1.264174938
20.37435051,4.579950333,-7.917000294,1.144050002,0.4054875076,-1.044862509,-1.264174938
20.39435051,4.579950333,-7.917000294,1.144050002,0.4054875076,-1.044862509,-1.264174938
20.41435051,4.579950333,-7.917000294,1.144050002,0.4054875076,-1.044862509,-1.264174938
20.43435051,4.579950333,-7.917000294,1.144050002,0.1196250021,-1.191025019,-0.8672124743
20.47435051,4.599000454,-10.33005047,2.274000168,0.399574995,-0.8394374847,-0.5161749721
20.49435051,4.599000454,-10.33005047,2.274000168,0.399574995,-0.8394374847,-0.5161749721
20.51435051,4.599000454,-10.33005047,2.274000168,0.399574995,-0.8394374847,-0.5161749721
20.53435051,4.369050026,-11.11500072,1.297050118,0.3690499961,-0.6567000151,-0.1403875053
20.55435051,4.369050026,-11.11500072,1.297050118,0.3690499961,-0.6567000151,-0.1403875053
20.57435051,2.626050234,-10.36800003,-2.838000059,-0.1410750002,-0.3764750063,0.2756874859
20.59435051,2.626050234,-10.36800003,-2.838000059,-0.1410750002,-0.3764750063,0.2756874859
20.61435051,2.626050234,-10.36800003,-2.838000059,-0.1410750002,-0.3764750063,0.2756874859
20.63435051,2.626050234,-10.36800003,-2.838000059,-0.1410750002,-0.3764750063,0.2756874859
20.65435051,2.626050234,-10.36800003,-2.838000059,-0.1410750002,-0.3764750063,0.2756874859
20.67435051,7.509000301,-9.162000656,-0.1570500135,-0.4785000086,-1.129150033,-0.1949750036
20.69435051,7.509000301,-9.162000656,-0.1570500135,-0.4785000086,-1.129150033,-0.1949750036
20.71435051,3.142950058,-12.30195045,5.031000137,-0.2884750068,-0.8113874793,-0.2454375029
20.73435051,3.142950058,-12.30195045,5.031000137,-0.2884750068,-0.8113874793,-0.2454375029
20.75435051,3.142950058,-12.30195045,5.031000137,-0.2884750068,-0.8113874793,-0.2454375029
20.77435051,2.301000118,-17.89395142,2.293050051,-0.6454250216,0.7914500237,0.2307250053
20.79435051,2.301000118,-17.89395142,2.293050051,-0.6454250216,0.7914500237,0.2307250053
20.81435051,1.324050069,-7.668000221,-1.746000051,-0.6511999965,2.025787592,0.4993999898
20.83435051,1.324050069,-7.668000221,-1.746000051,-0.6511999965,2.025787592,0.4993999898
20.85435051,1.324050069,-7.668000221,-1.746000051,-0.6511999965,2.025787592,0.4993999898
20.87435051,1.324050069,-7.668000221,-1.746000051,-0.6511999965,2.025787592,0.4993999898
20.89435051,1.324050069,-7.668000221,-1.746000051,-0.6511999965,2.025787592,0.4993999898
20.91435051,4.06305027,-7.324050426,-0.3870000243,0.4336749911,2.830849886,0.9107999802
20.93435051,4.06305027,-7.324050426,-0.3870000243,0.4336749911,2.830849886,0.9107999802
20.95435051,4.06305027,-7.324050426,-0.3870000243,0.4336749911,2.830849886,0.9107999802
20.97435051,4.06305027,-7.324050426,-0.3870000243,0.4336749911,2.830849886,0.9107999802
20.99435051,4.06305027,-7.324050426,-0.3870000243,0.4336749911,2.830849886,0.9107999802
21.01435051,-0.07304999977,-4.62405014,0.7039500475,-0.2758249938,1.698262453,0.2586374879
21.03435051,-0.07304999977,-4.62405014,0.7039500475,-0.2758249938,1.698262453,0.2586374879
21.05435051,2.262000084,-5.868000507,-2.473950148,-0.5733749866,0.8922374845,-0.2586374879
21.07435051,2.262000084,-5.868000507,-2.473950148,-0.5733749866,0.8922374845,-0.2586374879
21.09435051,2.262000084,-5.868000507,-2.473950148,-0.5733749866,0.8922374845,-0.2586374879
21.11435051,2.262000084,-5.868000507,-2.473950148,-0.5733749866,0.8922374845,-0.2586374879
21.13435051,2.262000084,-5.868000507,-2.473950148,-0.5733749866,0.8922374845,-0.2586374879
21.15435051,12.23895073,-10.54095078,-0.5590500236,-2.064424992,-0.9728124738,-1.478262544
21.17435051,12.23895073,-10.54095078,-0.5590500236,-2.064424992,-0.9728124738,-1.478262544
21.19435051,12.23895073,-10.54095078,-0.5590500236,-2.064424992,-0.9728124738,-1.478262544
21.21435051,12.23895073,-10.54095078,-0.5590500236,-2.064424992,-0.9728124738,-1.478262544
21.23435051,12.23895073,-10.54095078,-0.5590500236,-2.064424992,-0.9728124738,-1.478262544
21.25435051,6.130950451,-15.28995037,1.470000029,0.9042000175,-1.983437538,-2.233687401
21.27435051,6.130950451,-15.28995037,1.470000029,0.9042000175,-1.983437538,-2.233687401
21.29435051,6.130950451,-15.28995037,1.470000029,0.9042000175,-1.983437538,-2.233687401
21.31435051,6.130950451,-15.28995037,1.470000029,0.9042000175,-1.983437538,-2.233687401
21.33435051,6.130950451,-15.28995037,1.470000029,0.9042000175,-1.983437538,-2.233687401
21.35435051,6.130950451,-15.28995037,1.470000029,0.9042000175,-1.983437538,-2.233687401
21.37435051,6.130950451,-15.28995037,1.470000029,0.9042000175,-1.983437538,-2.233687401
21.39435051,-0.1879500151,-10.00500011,5.28000021,0.08813749999,1.096974969,1.511537433
21.41435051,-0.1879500151,-10.00500011,5.28000021,0.08813749999,1.096974969,1.511537433
21.43435051,-0.1879500151,-10.00500011,5.28000021,0.08813749999,1.096974969,1.511537433
21.45435051,-0.1879500151,-10.00500011,5.28000021,0.08813749999,1.096974969,1.511537433
21.47435051,-0.1879500151,-10.00500011,5.28000021,0.08813749999,1.096974969,1.511537433
21.49435051,2.683950186,-8.98995018,-3.949050188,0.1938749999,1.828337431,2.869762421
21.51435051,2.683950186,-8.98995018,-3.949050188,0.1938749999,1.828337431,2.869762421
21.53435051,3.142950058,-8.722050667,1.795050144,-0.4310624897,1.380774975,2.205637455
21.55435051,3.142950058,-8.722050667,1.795050144,-0.4310624897,1.380774975,2.205637455
21.57435051,3.142950058,-8.722050667,1.795050144,-0.4310624897,1.380774975,2.205637455
21.59435051,4.273050308,-9.352950096,3.36495018,1.076349974,-0.2114749998,0.2862749994
21.61435051,4.273050308,-9.352950096,3.36495018,1.076349974,-0.2114749998,0.2862749994
21.63435051,3.736950159,-8.089950562,1.660950065,0.8060249686,-1.28094995,-0.7973625064
21.65435051,3.736950159,-8.089950562,1.660950065,0.8060249686,-1.28094995,-0.7973625064
21.67435051,3.736950159,-8.089950562,1.660950065,0.8060249686,-1.28094995,-0.7973625064
21.69435051,3.736950159,-8.089950562,1.660950065,0.8060249686,-1.28094995,-0.7973625064
21.71435051,3.736950159,-8.089950562,1.660950065,0.8060249686,-1.28094995,-0.7973625064
21.73435051,4.46505022,-9.850950241,0.7990500331,-0.1340624988,-1.735387444,-0.8724374771
21.75435051,4.46505022,-9.850950241,0.7990500331,-0.1340624988,-1.735387444,-0.8724374771
21.77435051,4.46505022,-9.850950241,0.7990500331,-0.1340624988,-1.735387444,-0.8724374771
21.79435051,4.46505022,-9.850950241,0.7990500331,-0.1340624988,-1.735387444,-0.8724374771
21.81435051,4.46505022,-9.850950241,0.7990500331,-0.1340624988,-1.735387444,-0.8724374771
21.83435051,8.026050568,-10.27305031,1.642050028,1.075799942,-1.684787512,-0.5765374899
21.85435051,8.026050568,-10.27305031,1.642050028,1.075799942,-1.684787512,-0.5765374899
21.87435051,12.02895069,-12.30195045,-7.702050209,0.872025013,-2.031975031,-0.7749499679
21.89435051,12.02895069,-12.30195045,-7.702050209,0.872025013,-2.031975031,-0.7749499679
21.91435051,6.82005024,-11.74695015,-2.034000158,-0.06173750013,-3.202924967,-1.102200031
21.93435051,6.82005024,-11.74695015,-2.034000158,-0.06173750013,-3.202924967,-1.102200031
21.95435051,6.82005024,-11.74695015,-2.034000158,-0.06173750013,-3.202924967,-1.102200031
21.97435051,1.114050031,-12.39795017,4.360949993,0.2523125112,-1.854599953,-0.7590000033
21.99435051,1.114050031,-12.39795017,4.360949993,0.2523125112,-1.854599953,-0.7590000033
22.01435051,1.114050031,-12.39795017,4.360949993,0.2523125112,-1.854599953,-0.7590000033
22.03435051,1.114050031,-12.39795017,4.360949993,0.2523125112,-1.854599953,-0.7590000033
22.05435051,1.114050031,-12.39795017,4.360949993,0.2523125112,-1.854599953,-0.7590000033
22.07435051,-0.5710500479,-9.04695034,-1.114050031,-1.270637512,1.93393743,1.224025011
22.09435051,-0.5710500479,-9.04695034,-1.114050031,-1.270637512,1.93393743,1.224025011
22.11435051,-0.2449500114,-5.887050152,1.125,-1.480462551,3.336299896,2.021387577
22.13435051,-0.2449500114,-5.887050152,1.125,-1.480462551,3.336299896,2.021387577
22.15435051,-0.2449500114,-5.887050152,1.125,-1.480462551,3.336299896,2.021387577
22.17435051,-0.2449500114,-5.887050152,1.125,-1.480462551,3.336299896,2.021387577
22.19435051,-0.2449500114,-5.887050152,1.125,-1.480462551,3.336299896,2.021387577
22.21435051,1.707000136,-6.424050331,1.431000113,-0.1993750036,2.417249918,1.578362465
22.23435051,1.707000136,-6.424050331,1.431000113,-0.1993750036,2.417249918,1.578362465
22.25435051,0.5010000467,-5.503950119,0.7990500331,-0.2041874975,1.797124982,0.7720624804
22.27435051,0.5010000467,-5.503950119,0.7990500331,-0.2041874975,1.797124982,0.7720624804
22.29435051,0.5010000467,-5.503950119,0.7990500331,-0.2041874975,1.797124982,0.7720624804
22.31435051,1.822050095,-5.007000446,1.029000044,0.2425500005,1.034549952,-0.06338749826
22.33435051,1.822050095,-5.007000446,1.029000044,0.2425500005,1.034549952,-0.06338749826
22.35435051,1.822050095,-5.007000446,1.029000044,0.2425500005,1.034549952,-0.06338749826
22.37435051,1.822050095,-5.007000446,1.029000044,0.2425500005,1.034549952,-0.06338749826
22.39435051,1.822050095,-5.007000446,1.029000044,0.2425500005,1.034549952,-0.06338749826
22.41435051,1.822050095,-5.007000446,1.029000044,0.2425500005,1.034549952,-0.06338749826
22.43435051,1.822050095,-5.007000446,1.029000044,0.2425500005,1.034549952,-0.06338749826
22.45435051,1.822050095,-5.007000446,1.029000044,0.2425500005,1.034549952,-0.06338749826
22.47435051,1.822050095,-5.007000446,1.029000044,0.2425500005,1.034549952,-0.06338749826
22.49435051,1.822050095,-5.007000446,1.029000044,0.2425500005,1.034549952,-0.06338749826
22.51435051,1.822050095,-5.007000446,1.029000044,0.2425500005,1.034549952,-0.06338749826
22.53435051,1.822050095,-5.007000446,1.029000044,0.2425500005,1.034549952,-0.06338749826
22.55435051,0.1560000032,-10.11900043,2.121000051,0.2641375065,-0.5524749756,-0.7331500053
22.57435051,0.1560000032,-10.11900043,2.121000051,0.2641375065,-0.5524749756,-0.7331500053
22.59435051,-3.366000175,-5.46600008,2.772000074,0.1337874979,0.4115374982,0.175862506
22.61435051,-3.366000175,-5.46600008,2.772000074,0.1337874979,0.4115374982,0.175862506
22.63435051,-3.366000175,-5.46600008,2.772000074,0.1337874979,0.4115374982,0.175862506
22.65435051,-0.5710500479,-12.7999506,4.974000454,0.9070875049,1.82902503,1.394112468
22.67435051,-0.5710500479,-12.7999506,4.974000454,0.9070875049,1.82902503,1.394112468
22.69435051,-0.0150000006,-10.57905006,2.215950012,1.139187455,2.792074919,3.10791254
22.71435051,-0.0150000006,-10.57905006,2.215950012,1.139187455,2.792074919,3.10791254
22.73435051,-0.0150000006,-10.57905006,2.215950012,1.139187455,2.792074919,3.10791254
22.75435051,-0.0150000006,-10.57905006,2.215950012,1.139187455,2.792074919,3.10791254
22.77435051,-0.0150000006,-10.57905006,2.215950012,1.139187455,2.792074919,3.10791254
22.79435051,3.085950136,-8.836050034,3.805950165,-0.05596249923,1.308862448,1.935724974
22.81435051,3.085950136,-8.836050034,3.805950165,-0.05596249923,1.308862448,1.935724974
22.83435051,3.085950136,-8.836050034,3.805950165,-0.05596249923,1.308862448,1.935724974
22.85435051,3.085950136,-8.836050034,3.805950165,-0.05596249923,1.308862448,1.935724974
22.87435051,3.085950136,-8.836050034,3.805950165,-0.05596249923,1.308862448,1.935724974
22.89435051,6.111000061,-8.626049995,1.374000072,0.116187498,-1.23901248,-0.9211124778
22.91435051,6.111000061,-8.626049995,1.374000072,0.116187498,-1.23901248,-0.9211124778
22.93435051,4.177050114,-8.338950157,-2.377950191,-0.270462513,-2.317425013,-1.527762532
22.95435051,4.177050114,-8.338950157,-2.377950191,-0.270462513,-2.317425013,-1.527762532
22.97435051,4.426050186,-10.36800003,0.3400500119,0.08442500234,-2.632712603,-1.335124969
22.99435051,4.426050186,-10.36800003,0.3400500119,0.08442500234,-2.632712603,-1.335124969
23.01435051,4.426050186,-10.36800003,0.3400500119,0.08442500234,-2.632712603,-1.335124969
23.03435051,5.671050072,-10.50195026,3.270000219,0.8186749816,-2.228462458,-0.9186375141
23.05435051,5.671050072,-10.50195026,3.270000219,0.8186749816,-2.228462458,-0.9186375141
23.07435051,5.671050072,-10.50195026,3.270000219,0.8186749816,-2.228462458,-0.9186375141
23.09435051,5.671050072,-10.50195026,3.270000219,0.8186749816,-2.228462458,-0.9186375141
23.11435051,5.671050072,-10.50195026,3.270000219,0.8186749816,-2.228462458,-0.9186375141
23.13435051,9.040950775,-12.60900021,-6.01695013,0.05389999971,-2.353037596,-0.4839999974
23.15435051,9.040950775,-12.60900021,-6.01695013,0.05389999971,-2.353037596,-0.4839999974
23.17435051,4.599000454,-9.697950363,3.691050291,-0.3713875115,-2.107599974,-0.3386625051
23.19435051,4.599000454,-9.697950363,3.691050291,-0.3713875115,-2.107599974,-0.3386625051
23.21435051,4.599000454,-9.697950363,3.691050291,-0.3713875115,-2.107599974,-0.3386625051
23.23435051,4.599000454,-9.697950363,3.691050291,-0.3713875115,-2.107599974,-0.3386625051
23.25435051,4.599000454,-9.697950363,3.691050291,-0.3713875115,-2.107599974,-0.3386625051
23.27435051,0.8260500431,-16.13205147,2.542050123,-0.4709374905,0.8714749813,0.472725004
23.29435051,0.8260500431,-16.13205147,2.542050123,-0.4709374905,0.8714749813,0.472725004
23.31435051,0.7110000253,-7.438950539,-2.224950075,-0.8892124891,2.03541255,1.041975021
23.33435051,0.7110000253,-7.438950539,-2.224950075,-0.8892124891,2.03541255,1.041975021
23.35435051,0.7110000253,-7.438950539,-2.224950075,-0.8892124891,2.03541255,1.041975021
23.37435051,0.6540000439,-7.458000183,2.044049978,-0.4423374832,2.954462528,1.388749957
23.39435051,0.6540000439,-7.458000183,2.044049978,-0.4423374832,2.954462528,1.388749957
23.41435051,0.6540000439,-7.458000183,2.044049978,-0.4423374832,2.954462528,1.388749957
23.43435051,0.6540000439,-7.458000183,2.044049978,-0.4423374832,2.954462528,1.388749957
23.45435051,0.6540000439,-7.458000183,2.044049978,-0.4423374832,2.954462528,1.388749957
23.47435051,0.6540000439,-7.458000183,2.044049978,-0.4423374832,2.954462528,1.388749957
23.49435051,0.6540000439,-7.458000183,2.044049978,-0.4423374832,2.954462528,1.388749957
23.51435051,-0.3790500164,-5.752950191,0.913950026,-0.2285249978,1.704312444,0.463925004
23.53435051,-0.3790500164,-5.752950191,0.913950026,-0.2285249978,1.704312444,0.463925004
23.55435051,-0.3790500164,-5.752950191,0.913950026,-0.2285249978,1.704312444,0.463925004
23.57435051,-0.3790500164,-5.752950191,0.913950026,-0.2285249978,1.704312444,0.463925004
23.59435051,-0.3790500164,-5.752950191,0.913950026,-0.2285249978,1.704312444,0.463925004
23.61435051,8.199000359,-9.697950363,-3.757050276,-1.432749987,-0.1126125008,-1.320962548
23.63435051,8.199000359,-9.697950363,-3.757050276,-1.432749987,-0.1126125008,-1.320962548
23.65435051,14.49900055,-11.86200047,-0.3679500222,-1.98536253,-1.587849975,-2.377237558
23.67435051,14.49900055,-11.86200047,-0.3679500222,-1.98536253,-1.587849975,-2.377237558
23.69435051,14.49900055,-11.86200047,-0.3679500222,-1.98536253,-1.587849975,-2.377237558
23.71435051,7.165050507,-9.199950218,-1.879950047,0.2843500078,-2.583487511,-2.853399992
23.73435051,7.165050507,-9.199950218,-1.879950047,0.2843500078,-2.583487511,-2.853399992
23.75435051,3.277050257,-13.50900078,1.240050077,0.6144874692,-1.646700025,-1.637899995
23.77435051,3.277050257,-13.50900078,1.240050077,0.6144874692,-1.646700025,-1.637899995
23.79435051,3.277050257,-13.50900078,1.240050077,0.6144874692,-1.646700025,-1.637899995
23.81435051,3.277050257,-13.50900078,1.240050077,0.6144874692,-1.646700025,-1.637899995
23.83435051,3.277050257,-13.50900078,1.240050077,0.6144874692,-1.646700025,-1.637899995
23.85435051,-1.489950061,-6.595950127,2.580000162,0.837787509,0.1390125006,0.1262249947
23.87435051,-1.489950061,-6.595950127,2.580000162,0.837787509,0.1390125006,0.1262249947
23.89435051,-0.4170000255,-11.05800056,4.76295042,1.350525022,1.66938746,1.422437549
23.91435051,-0.4170000255,-11.05800056,4.76295042,1.350525022,1.66938746,1.422437549
23.93435051,-0.4170000255,-11.05800056,4.76295042,1.350525022,1.66938746,1.422437549
23.95435051,-0.7050000429,-8.913000107,-1.785000086,0.7842999697,2.570425034,3.018125057
23.97435051,-0.7050000429,-8.913000107,-1.785000086,0.7842999697,2.570425034,3.018125057
23.99435051,3.201000214,-9.142950058,0.3970500231,-0.02736249939,1.88993752,2.494524956
24.01435051,3.201000214,-9.142950058,0.3970500231,-0.02736249939,1.88993752,2.494524956
24.03435051,3.201000214,-9.142950058,0.3970500231,-0.02736249939,1.88993752,2.494524956
24.05435051,3.201000214,-9.142950058,0.3970500231,-0.02736249939,1.88993752,2.494524956
24.07435051,3.201000214,-9.142950058,0.3970500231,-0.02736249939,1.88993752,2.494524956
24.09435051,5.805000305,-8.395950317,1.75695014,0.02887500077,-0.1187999994,0.2111999989
24.11435051,5.805000305,-8.395950317,1.75695014,0.02887500077,-0.1187999994,0.2111999989
24.13435051,5.805000305,-8.395950317,1.75695014,0.02887500077,-0.1187999994,0.2111999989
24.15435051,5.805000305,-8.395950317,1.75695014,0.02887500077,-0.1187999994,0.2111999989
24.17435051,5.805000305,-8.395950317,1.75695014,0.02887500077,-0.1187999994,0.2111999989
24.19435051,4.157999992,-10.04295063,1.603950024,0.1483625025,-2.421237469,-1.331962466
24.21435051,4.157999992,-10.04295063,1.603950024,0.1483625025,-2.421237469,-1.331962466
24.23435051,3.718050241,-10.98105049,1.623000026,0.9702000022,-2.259812593,-1.001274943
24.25435051,3.718050241,-10.98105049,1.623000026,0.9702000022,-2.259812593,-1.001274943
24.27435051,3.718050241,-10.98105049,1.623000026,0.9702000022,-2.259812593,-1.001274943
24.29435051,3.718050241,-10.98105049,1.623000026,0.9702000022,-2.259812593,-1.001274943
24.31435051,3.718050241,-10.98105049,1.623000026,0.9702000022,-2.259812593,-1.001274943
24.33435051,9.214050293,-12.36000061,-1.018950105,0.7108749747,-1.557325006,-0.4036999941
24.35435051,9.214050293,-12.36000061,-1.018950105,0.7108749747,-1.557325006,-0.4036999941
24.37435051,6.283950329,-11.57505035,-2.224950075,0.01938750036,-1.878250003,-0.4324375093
24.39435051,6.283950329,-11.57505035,-2.224950075,0.01938750036,-1.878250003,-0.4324375093
24.41435051,6.283950329,-11.57505035,-2.224950075,0.01938750036,-1.878250003,-0.4324375093
24.43435051,6.283950329,-11.57505035,-2.224950075,0.01938750036,-1.878250003,-0.4324375093
24.45435051,6.283950329,-11.57505035,-2.224950075,0.01938750036,-1.878250003,-0.4324375093
24.47435051,6.283950329,-11.57505035,-2.224950075,0.01938750036,-1.878250003,-0.4324375093
24.49435051,6.283950329,-11.57505035,-2.224950075,0.01938750036,-1.878250003,-0.4324375093
24.51435051,6.283950329,-11.57505035,-2.224950075,0.01938750036,-1.878250003,-0.4324375093
24.53435051,6.283950329,-11.57505035,-2.224950075,0.01938750036,-1.878250003,-0.4324375093
24.55435051,6.283950329,-11.57505035,-2.224950075,0.01938750036,-1.878250003,-0.4324375093
24.57435051,0.02205000073,-7.419000149,2.619000196,-1.171224952,2.422199965,0.9433875084
24.59435051,0.02205000073,-7.419000149,2.619000196,-1.171224952,2.422199965,0.9433875084
24.61435051,0.02205000073,-7.419000149,2.619000196,-1.171224952,2.422199965,0.9433875084
24.63435051,0.02205000073,-7.419000149,2.619000196,-1.171224952,2.422199965,0.9433875084
24.65435051,0.02205000073,-7.419000149,2.619000196,-1.171224952,2.422199965,0.9433875084
24.67435051,2.569050074,-6.213000298,0.8760000467,-0.1836999953,2.439937592,0.867762506
24.69435051,2.569050074,-6.213000298,0.8760000467,-0.1836999953,2.439937592,0.867762506
24.71435051,2.569050074,-6.213000298,0.8760000467,-0.1836999953,2.439937592,0.867762506
24.73435051,2.569050074,-6.213000298,0.8760000467,-0.1836999953,2.439937592,0.867762506
24.75435051,2.569050074,-6.213000298,0.8760000467,-0.1836999953,2.439937592,0.867762506
24.77435051,-0.6850500107,-4.48995018,0.2250000089,-0.6466624737,1.338837504,-0.2014375031
24.79435051,-0.6850500107,-4.48995018,0.2250000089,-0.6466624737,1.338837504,-0.2014375031
24.81435051,5.824050426,-8.587050438,-3.316950083,-0.3045625091,0.8306375146,-0.2396624982
24.83435051,5.824050426,-8.587050438,-3.316950083,-0.3045625091,0.8306375146,-0.2396624982
24.85435051,5.824050426,-8.587050438,-3.316950083,-0.3045625091,0.8306375146,-0.2396624982
24.87435051,5.824050426,-8.587050438,-3.316950083,-0.3045625091,0.8306375146,-0.2396624982
24.89435051,5.824050426,-8.587050438,-3.316950083,-0.3045625091,0.8306375146,-0.2396624982
24.91435051,16.39500046,-7.993950367,2.464950085,-0.6759499907,-1.510437489,-2.808024883
24.93435051,16.39500046,-7.993950367,2.464950085,-0.6759499907,-1.510437489,-2.808024883
24.95435051,6.169050217,-13.31700039,-0.1950000077,0.2857249975,-2.137300014,-2.990624905
24.97435051,6.169050217,-13.31700039,-0.1950000077,0.2857249975,-2.137300014,-2.990624905
24.99435051,6.169050217,-13.31700039,-0.1950000077,0.2857249975,-2.137300014,-2.990624905
25.01435051,0.9990000725,-14.06400108,2.311950207,0.511500001,-0.9448999763,-1.416387439
25.03435051,0.9990000725,-14.06400108,2.311950207,0.511500001,-0.9448999763,-1.416387439
25.05435051,-2.122050047,-6.730050087,0.3400500119,0.1275999993,-0.1079374999,-0.2488749921
25.07435051,-2.122050047,-6.730050087,0.3400500119,0.1275999993,-0.1079374999,-0.2488749921
25.09435051,-2.122050047,-6.730050087,0.3400500119,0.1275999993,-0.1079374999,-0.2488749921
25.11435051,-2.122050047,-6.730050087,0.3400500119,0.1275999993,-0.1079374999,-0.2488749921
25.13435051,-2.122050047,-6.730050087,0.3400500119,0.1275999993,-0.1079374999,-0.2488749921
25.15435051,-0.4170000255,-10.48305035,4.744050026,0.6973999739,2.407350063,2.804450035
25.17435051,-0.4170000255,-10.48305035,4.744050026,0.6973999739,2.407350063,2.804450035
25.19435051,-0.4170000255,-10.48305035,4.744050026,0.6973999739,2.407350063,2.804450035
25.21435051,-0.4170000255,-10.48305035,4.744050026,0.6973999739,2.407350063,2.804450035
25.23435051,-0.4170000255,-10.48305035,4.744050026,0.6973999739,2.407350063,2.804450035
25.25435051,3.334950209,-8.644950867,0.8190000653,-0.03478749841,1.458050013,2.431137562
25.27435051,3.334950209,-8.644950867,0.8190000653,-0.03478749841,1.458050013,2.431137562
25.29435051,4.693950176,-8.319000244,3.231000185,0.2366375029,0.5279999971,1.03125
25.31435051,4.693950176,-8.319000244,3.231000185,0.2366375029,0.5279999971,1.03125
25.33435051,4.693950176,-8.319000244,3.231000185,0.2366375029,0.5279999971,1.03125
25.35435051,4.693950176,-8.319000244,3.231000185,0.2366375029,0.5279999971,1.03125
25.37435051,4.693950176,-8.319000244,3.231000185,0.2366375029,0.5279999971,1.03125
25.39435051,4.042950153,-8.950950623,-0.7309500575,0.2398000062,-1.631299973,-1.334025025
25.41435051,4.042950153,-8.950950623,-0.7309500575,0.2398000062,-1.631299973,-1.334025025
25.43435051,4.042950153,-8.950950623,-0.7309500575,0.2398000062,-1.631299973,-1.334025025
25.45435051,4.042950153,-8.950950623,-0.7309500575,0.2398000062,-1.631299973,-1.334025025
25.47435051,4.042950153,-8.950950623,-0.7309500575,0.2398000062,-1.631299973,-1.334025025
25.49435051,4.483950138,-10.7320509,2.542050123,0.3760625124,-1.890212536,-0.9172624946
25.51435051,4.483950138,-10.7320509,2.542050123,0.3760625124,-1.890212536,-0.9172624946
25.53435051,4.483950138,-10.7320509,2.542050123,0.3760625124,-1.890212536,-0.9172624946
25.55435051,4.483950138,-10.7320509,2.542050123,0.3760625124,-1.890212536,-0.9172624946
25.57435051,4.483950138,-10.7320509,2.542050123,0.3760625124,-1.890212536,-0.9172624946
25.59435051,4.483950138,-10.7320509,2.542050123,0.3760625124,-1.890212536,-0.9172624946
25.61435051,4.483950138,-10.7320509,2.542050123,0.3760625124,-1.890212536,-0.9172624946
25.63435051,7.911000252,-10.40700054,-2.530950069,-0.2765125036,-1.326050043,-0.288199991
25.65435051,7.911000252,-10.40700054,-2.530950069,-0.2765125036,-1.326050043,-0.288199991
25.67435051,7.911000252,-10.40700054,-2.530950069,-0.2765125036,-1.326050043,-0.288199991
25.69435051,7.911000252,-10.40700054,-2.530950069,-0.2765125036,-1.326050043,-0.288199991
25.71435051,7.911000252,-10.40700054,-2.530950069,-0.2765125036,-1.326050043,-0.288199991
25.73435051,3.028050184,-15.86400032,2.619000196,0.3748250008,-0.3878875077,-0.2440624982
25.75435051,3.028050184,-15.86400032,2.619000196,0.3748250008,-0.3878875077,-0.2440624982
25.77435051,0.7309500575,-11.74695015,3.460950136,-0.4316124916,0.7895249724,0.3339875042
25.79435051,0.7309500575,-11.74695015,3.460950136,-0.4316124916,0.7895249724,0.3339875042
25.81435051,0.7309500575,-11.74695015,3.460950136,-0.4316124916,0.7895249724,0.3339875042
25.83435051,0.3280500174,-7.03605032,0.09105000645,-1.150324941,1.618237495,0.6182000041
25.85435051,0.3280500174,-7.03605032,0.09105000645,-1.150324941,1.618237495,0.6182000041
25.87435051,0.3280500174,-7.03605032,0.09105000645,-1.150324941,1.618237495,0.6182000041
25.89435051,0.3280500174,-7.03605032,0.09105000645,-1.150324941,1.618237495,0.6182000041
25.91435051,0.3280500174,-7.03605032,0.09105000645,-1.150324941,1.618237495,0.6182000041
25.93435051,0.3280500174,-7.03605032,0.09105000645,-1.150324941,1.618237495,0.6182000041
25.95435051,0.3280500174,-7.03605032,0.09105000645,-1.150324941,1.618237495,0.6182000041
25.97435051,0.5770500302,-5.848950386,0.2820000052,-0.7845749855,1.93531251,0.7570750117
25.99435051,0.5770500302,-5.848950386,0.2820000052,-0.7845749855,1.93531251,0.7570750117
26.01435051,1.132950068,-5.140950203,0.05295000225,-0.6342874765,1.605175018,0.6254875064
26.03435051,1.132950068,-5.140950203,0.05295000225,-0.6342874765,1.605175018,0.6254875064
26.05435051,1.132950068,-5.140950203,0.05295000225,-0.6342874765,1.605175018,0.6254875064
26.07435051,4.963050365,-8.166000366,-1.573950052,-0.2111999989,0.9337624907,0.03478749841
26.09435051,4.963050365,-8.166000366,-1.573950052,-0.2111999989,0.9337624907,0.03478749841
26.11435051,10.97505093,-12.72405052,-5.097000122,-1.384899974,-0.07493750006,-1.381600022
26.13435051,10.97505093,-12.72405052,-5.097000122,-1.384899974,-0.07493750006,-1.381600022
26.15435051,16.05000114,-12.58995056,1.336050034,-1.289199948,-1.168062449,-2.44818759
26.19435051,16.05000114,-12.58995056,1.336050034,-1.289199948,-1.168062449,-2.44818759
26.21435051,5.383950233,-12.41700077,-1.324950099,0.8669375181,-2.138949871,-3.016200066
26.23435051,5.383950233,-12.41700077,-1.324950099,0.8669375181,-2.138949871,-3.016200066
26.25435051,5.383950233,-12.41700077,-1.324950099,0.8669375181,-2.138949871,-3.016200066
26.27435051,5.383950233,-12.41700077,-1.324950099,0.8669375181,-2.138949871,-3.016200066
26.29435051,5.383950233,-12.41700077,-1.324950099,0.8669375181,-2.138949871,-3.016200066
26.31435051,-0.838950038,-6.997950554,3.423000097,0.03355000168,-0.2682625055,-0.3122625053
26.33435051,-0.838950038,-6.997950554,3.423000097,0.03355000168,-0.2682625055,-0.3122625053
26.35435051,-0.07304999977,-10.36800003,4.609950066,0.9561749697,0.8084999919,0.7341125011
26.37435051,-0.07304999977,-10.36800003,4.609950066,0.9561749697,0.8084999919,0.7341125011
26.39435051,-0.07304999977,-10.36800003,4.609950066,0.9561749697,0.8084999919,0.7341125011
26.41435051,-0.07304999977,-10.36800003,4.609950066,0.9561749697,0.8084999919,0.7341125011
26.43435051,-0.07304999977,-10.36800003,4.609950066,0.9561749697,0.8084999919,0.7341125011
26.45435051,-0.07304999977,-10.36800003,4.609950066,0.9561749697,0.8084999919,0.7341125011
26.47435051,-0.07304999977,-10.36800003,4.609950066,0.9561749697,0.8084999919,0.7341125011
26.49435051,2.856000185,-8.338950157,2.809950113,0.9048874974,1.003062487,1.917437434
26.51435051,2.856000185,-8.338950157,2.809950113,0.9048874974,1.003062487,1.917437434
26.53435051,2.856000185,-8.338950157,2.809950113,0.9048874974,1.003062487,1.917437434
26.55435051,4.138950348,-8.779050827,3.001950026,0.6612374783,0.167612493,0.8318749666
26.57435051,4.138950348,-8.779050827,3.001950026,0.6612374783,0.167612493,0.8318749666
26.59435051,4.138950348,-8.779050827,3.001950026,0.6612374783,0.167612493,0.8318749666
26.61435051,4.138950348,-8.779050827,3.001950026,0.6612374783,0.167612493,0.8318749666
26.63435051,4.138950348,-8.779050827,3.001950026,0.6612374783,0.167612493,0.8318749666
26.65435051,4.138950348,-8.779050827,3.001950026,0.6612374783,0.167612493,0.8318749666
26.67435051,4.138950348,-8.779050827,3.001950026,0.6612374783,0.167612493,0.8318749666
26.69435051,5.211000443,-10.21500015,1.660950065,-0.1082125008,-1.491050005,-0.7324625254
26.71435051,5.211000443,-10.21500015,1.660950065,-0.1082125008,-1.491050005,-0.7324625254
26.73435051,5.211000443,-10.21500015,1.660950065,-0.1082125008,-1.491050005,-0.7324625254
26.75435051,5.211000443,-10.21500015,1.660950065,-0.1082125008,-1.491050005,-0.7324625254
26.77435051,5.211000443,-10.21500015,1.660950065,-0.1082125008,-1.491050005,-0.7324625254
26.79435051,5.593950272,-10.09995079,0.8190000653,0.6836500168,-1.700049996,-0.5961999893
26.81435051,5.593950272,-10.09995079,0.8190000653,0.6836500168,-1.700049996,-0.5961999893
26.83435051,9.06000042,-12.57105064,-2.569950104,0.227562502,-1.593075037,-0.4101625085
26.85435051,9.06000042,-12.57105064,-2.569950104,0.227562502,-1.593075037,-0.4101625085
26.87435051,9.06000042,-12.57105064,-2.569950104,0.227562502,-1.593075037,-0.4101625085
26.89435051,6.283950329,-10.23405075,0.3970500231,-0.1948374957,-2.402537584,-0.7833374739
26.91435051,6.283950329,-10.23405075,0.3970500231,-0.1948374957,-2.402537584,-0.7833374739
26.93435051,6.283950329,-10.23405075,0.3970500231,-0.1948374957,-2.402537584,-0.7833374739
26.95435051,6.283950329,-10.23405075,0.3970500231,-0.1948374957,-2.402537584,-0.7833374739
26.97435051,6.283950329,-10.23405075,0.3970500231,-0.1948374957,-2.402537584,-0.7833374739
26.99435051,6.283950329,-10.23405075,0.3970500231,-0.1948374957,-2.402537584,-0.7833374739
27.01435051,6.283950329,-10.23405075,0.3970500231,-0.1948374957,-2.402537584,-0.7833374739
27.03435051,0.9220500588,-8.2999506,-5.806050301,-0.8218374848,1.87302494,0.9277125001
27.05435051,0.9220500588,-8.2999506,-5.806050301,-0.8218374848,1.87302494,0.9277125001
27.07435051,-0.5320500135,-7.419000149,1.35495007,-1.041149974,2.574825048,1.254274964
27.09435051,-0.5320500135,-7.419000149,1.35495007,-1.041149974,2.574825048,1.254274964
27.11435051,-0.5320500135,-7.419000149,1.35495007,-1.041149974,2.574825048,1.254274964
27.13435051,1.305000067,-7.189950466,2.638050079,0.2232999951,2.776400089,1.846487522
27.15435051,1.305000067,-7.189950466,2.638050079,0.2232999951,2.776400089,1.846487522
27.17435051,1.687950134,-5.964000225,0.780000031,0.1649999917,2.192987442,1.4102
27.19435051,1.687950134,-5.964000225,0.780000031,0.1649999917,2.192987442,1.4102
27.21435051,1.687950134,-5.964000225,0.780000031,0.1649999917,2.192987442,1.4102
27.23435051,1.687950134,-5.964000225,0.780000031,0.1649999917,2.192987442,1.4102
27.25435051,1.687950134,-5.964000225,0.780000031,0.1649999917,2.192987442,1.4102
27.27435051,4.06305027,-7.132050514,-1.095000029,-0.0438624993,1.266237497,0.4324375093
27.29435051,4.06305027,-7.132050514,-1.095000029,-0.0438624993,1.266237497,0.4324375093
27.31435051,4.06305027,-7.132050514,-1.095000029,-0.0438624993,1.266237497,0.4324375093
27.33435051,4.06305027,-7.132050514,-1.095000029,-0.0438624993,1.266237497,0.4324375093
27.35435051,4.06305027,-7.132050514,-1.095000029,-0.0438624993,1.266237497,0.4324375093
27.37435051,14.92005062,-11.91900063,-1.383000016,-1.229387522,-0.9960500002,-2.533987522
27.39435051,14.92005062,-11.91900063,-1.383000016,-1.229387522,-0.9960500002,-2.533987522
27.41435051,14.92005062,-11.91900063,-1.383000016,-1.229387522,-0.9960500002,-2.533987522
27.43435051,14.92005062,-11.91900063,-1.383000016,-1.229387522,-0.9960500002,-2.533987522
27.45435051,14.92005062,-11.91900063,-1.383000016,-1.229387522,-0.9960500002,-2.533987522
27.47435051,14.92005062,-11.91900063,-1.383000016,-1.229387522,-0.9960500002,-2.533987522
27.49435051,14.92005062,-11.91900063,-1.383000016,-1.229387522,-0.9960500002,-2.533987522
27.51435051,0.807000041,-10.96200085,3.193050146,-0.03176249936,-0.8102874756,-0.5652624965
27.53435051,0.807000041,-10.96200085,3.193050146,-0.03176249936,-0.8102874756,-0.5652624965
27.55435051,-3.213000059,-6.289950371,2.734050035,0.4503124952,-0.03244999796,0.2250874937
27.57435051,-3.213000059,-6.289950371,2.734050035,0.4503124952,-0.03244999796,0.2250874937
27.59435051,-3.213000059,-6.289950371,2.734050035,0.4503124952,-0.03244999796,0.2250874937
27.61435051,-0.1300500035,-10.82805061,4.974000454,1.200924993,1.410612464,1.697162509
27.63435051,-0.1300500035,-10.82805061,4.974000454,1.200924993,1.410612464,1.697162509
27.65435051,-0.1300500035,-10.82805061,4.974000454,1.200924993,1.410612464,1.697162509
27.67435051,-0.1300500035,-10.82805061,4.974000454,1.200924993,1.410612464,1.697162509
27.69435051,-0.1300500035,-10.82805061,4.974000454,1.200924993,1.410612464,1.697162509
27.71435051,2.397000074,-8.779050827,-4.389000416,0.0808499977,1.521574974,2.487649918
27.73435051,2.397000074,-8.779050827,-4.389000416,0.0808499977,1.521574974,2.487649918
27.75435051,3.565050125,-8.683050156,3.576000214,0.1314499974,0.5736500025,1.282325029
27.77435051,3.565050125,-8.683050156,3.576000214,0.1314499974,0.5736500025,1.282325029
27.79435051,3.565050125,-8.683050156,3.576000214,0.1314499974,0.5736500025,1.282325029
27.81435051,3.565050125,-8.683050156,3.576000214,0.1314499974,0.5736500025,1.282325029
27.83435051,3.565050125,-8.683050156,3.576000214,0.1314499974,0.5736500025,1.282325029
27.85435051,5.230950356,-8.491950035,0.7230000496,0.09253749996,-1.436462522,-1.069337487
27.87435051,5.230950356,-8.491950035,0.7230000496,0.09253749996,-1.436462522,-1.069337487
27.89435051,3.105000257,-8.548950195,-1.383000016,-0.4111250043,-2.035549879,-1.326874971
27.91435051,3.105000257,-8.548950195,-1.383000016,-0.4111250043,-2.035549879,-1.326874971
27.93435051,3.105000257,-8.548950195,-1.383000016,-0.4111250043,-2.035549879,-1.326874971
27.95435051,4.522050381,-10.40700054,1.776000142,-0.0420750007,-2.141974926,-1.084187508
27.97435051,4.522050381,-10.40700054,1.776000142,-0.0420750007,-2.141974926,-1.084187508
27.99435051,4.522050381,-10.40700054,1.776000142,-0.0420750007,-2.141974926,-1.084187508
28.01435051,4.522050381,-10.40700054,1.776000142,-0.0420750007,-2.141974926,-1.084187508
28.03435051,4.522050381,-10.40700054,1.776000142,-0.0420750007,-2.141974926,-1.084187508
28.05435051,4.522050381,-10.40700054,1.776000142,-0.0420750007,-2.141974926,-1.084187508
28.07435051,4.522050381,-10.40700054,1.776000142,-0.0420750007,-2.141974926,-1.084187508
28.09435051,10.61205006,-11.93895054,-6.438000202,0.04441250116,-2.049437523,-0.5244249701
28.11435051,10.61205006,-11.93895054,-6.438000202,0.04441250116,-2.049437523,-0.5244249701
28.13435051,4.06305027,-9.793950081,2.982000113,-0.08910000324,-2.043112516,-0.5713124871
28.13435051,4.06305027,-9.793950081,2.982000113,-0.08910000324,-2.043112516,-0.5713124871
28.17435051,4.06305027,-9.793950081,2.982000113,-0.08910000324,-2.043112516,-0.5713124871
28.19435051,1.707000136,-16.09395027,2.829000235,0.4174500108,-0.5724124908,-0.2253624946
28.21435051,1.707000136,-16.09395027,2.829000235,0.4174500108,-0.5724124908,-0.2253624946
28.23435051,-1.068000078,-14.1409502,3.270000219,-0.3679499924,1.000174999,0.6375874877
28.25435051,-1.068000078,-14.1409502,3.270000219,-0.3679499924,1.000174999,0.6375874877
28.27435051,-1.068000078,-14.1409502,3.270000219,-0.3679499924,1.000174999,0.6375874877
28.29435051,-1.068000078,-14.1409502,3.270000219,-0.3679499924,1.000174999,0.6375874877
28.31435051,-1.068000078,-14.1409502,3.270000219,-0.3679499924,1.000174999,0.6375874877
28.33435051,1.055999994,-6.691950321,0.8950500488,-0.7077124715,2.763750076,1.472625017
28.35435051,1.055999994,-6.691950321,0.8950500488,-0.7077124715,2.763750076,1.472625017
28.37435051,1.055999994,-6.691950321,0.8950500488,-0.7077124715,2.763750076,1.472625017
28.39435051,1.055999994,-6.691950321,0.8950500488,-0.7077124715,2.763750076,1.472625017
28.41435051,1.055999994,-6.691950321,0.8950500488,-0.7077124715,2.763750076,1.472625017
28.43435051,1.055999994,-6.691950321,0.8950500488,-0.7077124715,2.763750076,1.472625017
28.45435051,1.055999994,-6.691950321,0.8950500488,-0.7077124715,2.763750076,1.472625017
28.47435051,1.055999994,-6.691950321,0.8950500488,-0.7077124715,2.763750076,1.472625017
28.49435051,1.055999994,-6.691950321,0.8950500488,-0.7077124715,2.763750076,1.472625017
28.51435051,1.055999994,-6.691950321,0.8950500488,-0.7077124715,2.763750076,1.472625017
28.53435051,1.055999994,-6.691950321,0.8950500488,-0.7077124715,2.763750076,1.472625017
28.55435051,1.055999994,-6.691950321,0.8950500488,-0.7077124715,2.763750076,1.472625017
28.57435051,8.199000359,-10.11900043,-4.695000172,-0.3434749842,-0.2173874974,-1.302675009
28.59435051,8.199000359,-10.11900043,-4.695000172,-0.3434749842,-0.2173874974,-1.302675009
28.61435051,12.85200024,-11.01900005,-4.177950382,-0.5707625151,-1.004575014,-1.909737468
28.63435051,12.85200024,-11.01900005,-4.177950382,-0.5707625151,-1.004575014,-1.909737468
28.65435051,12.85200024,-11.01900005,-4.177950382,-0.5707625151,-1.004575014,-1.909737468
28.67435051,7.854000568,-8.817000389,-0.1000500023,0.6355249882,-2.287450075,-2.92599988
28.69435051,7.854000568,-8.817000389,-0.1000500023,0.6355249882,-2.287450075,-2.92599988
28.71435051,7.854000568,-8.817000389,-0.1000500023,0.6355249882,-2.287450075,-2.92599988
28.73435051,7.854000568,-8.817000389,-0.1000500023,0.6355249882,-2.287450075,-2.92599988
28.75435051,7.854000568,-8.817000389,-0.1000500023,0.6355249882,-2.287450075,-2.92599988
28.77435051,0.8839500546,-8.109000206,3.748050213,0.7442874908,-0.3795000017,-0.2590500116
28.79435051,0.8839500546,-8.109000206,3.748050213,0.7442874908,-0.3795000017,-0.2590500116
28.81435051,0.8839500546,-8.109000206,3.748050213,0.7442874908,-0.3795000017,-0.2590500116
28.83435051,0.8839500546,-8.109000206,3.748050213,0.7442874908,-0.3795000017,-0.2590500116
28.85435051,0.8839500546,-8.109000206,3.748050213,0.7442874908,-0.3795000017,-0.2590500116
28.87435051,0.8839500546,-8.109000206,3.748050213,0.7442874908,-0.3795000017,-0.2590500116
28.89435051,0.8839500546,-8.109000206,3.748050213,0.7442874908,-0.3795000017,-0.2590500116
28.91435051,0.04095000029,-10.86600018,1.660950065,0.881649971,2.261324883,2.802662373
28.93435051,0.04095000029,-10.86600018,1.660950065,0.881649971,2.261324883,2.802662373
28.95435051,2.014050007,-9.142950058,-3.489000082,0.6121500134,1.602699995,2.274112463
28.97435051,2.014050007,-9.142950058,-3.489000082,0.6121500134,1.602699995,2.274112463
28.99435051,2.014050007,-9.142950058,-3.489000082,0.6121500134,1.602699995,2.274112463
29.01435051,2.893950224,-8.836050034,2.944050074,-0.4056249857,0.7970874906,1.27215004
29.03435051,2.893950224,-8.836050034,2.944050074,-0.4056249857,0.7970874906,1.27215004
29.05435051,4.732950211,-9.028050423,3.289050102,-0.386787504,0.09061250091,0.3804624975
29.07435051,4.732950211,-9.028050423,3.289050102,-0.386787504,0.09061250091,0.3804624975
29.09435051,4.732950211,-9.028050423,3.289050102,-0.386787504,0.09061250091,0.3804624975
29.11435051,4.732950211,-9.028050423,3.289050102,-0.386787504,0.09061250091,0.3804624975
29.13435051,4.732950211,-9.028050423,3.289050102,-0.386787504,0.09061250091,0.3804624975
29.15435051,3.603000164,-7.993950367,-0.2340000123,-0.2353999913,-1.642575026,-1.089687467
29.17435051,3.603000164,-7.993950367,-0.2340000123,-0.2353999913,-1.642575026,-1.089687467
29.19435051,3.603000164,-7.993950367,-0.2340000123,-0.2353999913,-1.642575026,-1.089687467
29.21435051,3.603000164,-7.993950367,-0.2340000123,-0.2353999913,-1.642575026,-1.089687467
29.23435051,3.603000164,-7.993950367,-0.2340000123,-0.2353999913,-1.642575026,-1.089687467
29.25435051,5.269050121,-10.98105049,2.062950134,0.4905999899,-2.013550043,-0.7903500199
29.27435051,5.269050121,-10.98105049,2.062950134,0.4905999899,-2.013550043,-0.7903500199
29.29435051,5.077050209,-10.33005047,1.35495007,0.6059625149,-1.864362478,-0.48111251
29.31435051,5.077050209,-10.33005047,1.35495007,0.6059625149,-1.864362478,-0.48111251
29.33435051,5.632950306,-10.69395065,-2.110050201,0.2114749998,-1.530237436,-0.1832875013
29.35435051,5.632950306,-10.69395065,-2.110050201,0.2114749998,-1.530237436,-0.1832875013
29.37435051,5.632950306,-10.69395065,-2.110050201,0.2114749998,-1.530237436,-0.1832875013
29.39435051,7.663050175,-11.15295029,-2.282999992,-0.2425500005,-1.93324995,-0.3206500113
29.41435051,7.663050175,-11.15295029,-2.282999992,-0.2425500005,-1.93324995,-0.3206500113
29.43435051,7.663050175,-11.15295029,-2.282999992,-0.2425500005,-1.93324995,-0.3206500113
29.45435051,7.663050175,-11.15295029,-2.282999992,-0.2425500005,-1.93324995,-0.3206500113
29.47435051,7.663050175,-11.15295029,-2.282999992,-0.2425500005,-1.93324995,-0.3206500113
29.49435051,1.5160501,-17.33895111,2.560950041,0.03588749841,0.2611125112,0.1486375034
29.51435051,1.5160501,-17.33895111,2.560950041,0.03588749841,0.2611125112,0.1486375034
29.53435051,1.5160501,-17.33895111,2.560950041,0.03588749841,0.2611125112,0.1486375034
29.55435051,1.5160501,-17.33895111,2.560950041,0.03588749841,0.2611125112,0.1486375034
29.57435051,1.5160501,-17.33895111,2.560950041,0.03588749841,0.2611125112,0.1486375034
29.59435051,1.5160501,-17.33895111,2.560950041,0.03588749841,0.2611125112,0.1486375034
29.61435051,1.5160501,-17.33895111,2.560950041,0.03588749841,0.2611125112,0.1486375034
29.63435051,2.281949997,-7.03605032,1.680000067,-0.4141499996,2.828787565,0.9338999987
29.65435051,2.281949997,-7.03605032,1.680000067,-0.4141499996,2.828787565,0.9338999987
29.67435051,2.914050102,-6.481050491,0.5890500546,-0.3627249897,2.464824915,0.6701750159
29.69435051,2.914050102,-6.481050491,0.5890500546,-0.3627249897,2.464824915,0.6701750159
29.71435051,2.914050102,-6.481050491,0.5890500546,-0.3627249897,2.464824915,0.6701750159
29.73435051,0.2140500098,-6.213000298,0.2820000052,-0.623287499,1.816375017,0.02557500079
29.75435051,0.2140500098,-6.213000298,0.2820000052,-0.623287499,1.816375017,0.02557500079
29.77435051,0.2140500098,-6.213000298,0.2820000052,-0.623287499,1.816375017,0.02557500079
29.79435051,0.2140500098,-6.213000298,0.2820000052,-0.623287499,1.816375017,0.02557500079
29.81435051,0.2140500098,-6.213000298,0.2820000052,-0.623287499,1.816375017,0.02557500079
29.83435051,4.885950089,-8.701950073,-2.053050041,-0.4302375019,0.7484124899,-0.2265999913
29.85435051,4.885950089,-8.701950073,-2.053050041,-0.4302375019,0.7484124899,-0.2265999913
29.87435051,9.136950493,-11.44095039,-2.838000059,-1.809224963,-0.1566125005,-0.8398500085
29.89435051,9.136950493,-11.44095039,-2.838000059,-1.809224963,-0.1566125005,-0.8398500085
29.91435051,9.136950493,-11.44095039,-2.838000059,-1.809224963,-0.1566125005,-0.8398500085
29.93435051,9.136950493,-11.44095039,-2.838000059,-1.809224963,-0.1566125005,-0.8398500085
29.95435051,9.136950493,-11.44095039,-2.838000059,-1.809224963,-0.1566125005,-0.8398500085
29.97435051,8.389950752,-7.956000328,0.5509500504,0.7877374887,-2.109937429,-2.498924971
29.99435051,8.389950752,-7.956000328,0.5509500504,0.7877374887,-2.109937429,-2.498924971
30.01435051,8.389950752,-7.956000328,0.5509500504,0.7877374887,-2.109937429,-2.498924971
30.03435051,8.389950752,-7.956000328,0.5509500504,0.7877374887,-2.109937429,-2.498924971
30.05435051,8.389950752,-7.956000328,0.5509500504,0.7877374887,-2.109937429,-2.498924971
30.07435051,-1.432050109,-8.146950722,-1.669950128,0.8214250207,-0.3932499886,-0.3317874968
30.09435051,-1.432050109,-8.146950722,-1.669950128,0.8214250207,-0.3932499886,-0.3317874968
30.11435051,-3.136950254,-5.658000469,2.542050123,0.9983875155,0.7451124787,0.6377249956
30.13435051,-3.136950254,-5.658000469,2.542050123,0.9983875155,0.7451124787,0.6377249956
30.15435051,-3.136950254,-5.658000469,2.542050123,0.9983875155,0.7451124787,0.6377249956
30.17435051,-3.136950254,-5.658000469,2.542050123,0.9983875155,0.7451124787,0.6377249956
30.19435051,-3.136950254,-5.658000469,2.542050123,0.9983875155,0.7451124787,0.6377249956
30.21435051,0.02205000073,-11.23005009,1.546050072,0.5676000118,2.495074987,3.009049892
30.23435051,0.02205000073,-11.23005009,1.546050072,0.5676000118,2.495074987,3.009049892
30.25435051,2.569050074,-8.875050545,-4.024950027,0.4587000012,1.836174965,2.555712461
30.27435051,2.569050074,-8.875050545,-4.024950027,0.4587000012,1.836174965,2.555712461
30.29435051,2.569050074,-8.875050545,-4.024950027,0.4587000012,1.836174965,2.555712461
30.31435051,2.914050102,-8.607000351,4.591050148,-0.08291249722,1.173287511,1.720537543
30.33435051,2.914050102,-8.607000351,4.591050148,-0.08291249722,1.173287511,1.720537543
30.35435051,2.914050102,-8.607000351,4.591050148,-0.08291249722,1.173287511,1.720537543
30.37435051,2.914050102,-8.607000351,4.591050148,-0.08291249722,1.173287511,1.720537543
30.39435051,2.914050102,-8.607000351,4.591050148,-0.08291249722,1.173287511,1.720537543
30.41435051,2.914050102,-8.607000351,4.591050148,-0.08291249722,1.173287511,1.720537543
30.43435051,2.914050102,-8.607000351,4.591050148,-0.08291249722,1.173287511,1.720537543
30.45435051,2.914050102,-8.607000351,4.591050148,-0.08291249722,1.173287511,1.720537543
30.47435051,2.914050102,-8.607000351,4.591050148,-0.08291249722,1.173287511,1.720537543
30.49435051,2.914050102,-8.607000351,4.591050148,-0.08291249722,1.173287511,1.720537543
30.51435051,2.914050102,-8.607000351,4.591050148,-0.08291249722,1.173287511,1.720537543
30.53435051,2.914050102,-8.607000351,4.591050148,-0.08291249722,1.173287511,1.720537543
30.55435051,4.503000259,-9.832050323,3.289050102,0.5033875108,-1.624287486,-1.008424997
30.57435051,4.503000259,-9.832050323,3.289050102,0.5033875108,-1.624287486,-1.008424997
30.59435051,6.379950523,-10.4640007,1.795050144,0.2712875009,-1.135475039,-0.6271374822
30.61435051,6.379950523,-10.4640007,1.795050144,0.2712875009,-1.135475039,-0.6271374822
30.63435051,6.379950523,-10.4640007,1.795050144,0.2712875009,-1.135475039,-0.6271374822
30.65435051,6.379950523,-10.4640007,1.795050144,0.2712875009,-1.135475039,-0.6271374822
30.67435051,6.379950523,-10.4640007,1.795050144,0.2712875009,-1.135475039,-0.6271374822
30.69435051,6.379950523,-10.4640007,1.795050144,0.2712875009,-1.135475039,-0.6271374822
30.71435051,6.379950523,-10.4640007,1.795050144,0.2712875009,-1.135475039,-0.6271374822
30.73435051,6.379950523,-10.4640007,1.795050144,0.2712875009,-1.135475039,-0.6271374822
30.75435051,6.379950523,-10.4640007,1.795050144,0.2712875009,-1.135475039,-0.6271374822
30.77435051,6.379950523,-10.4640007,1.795050144,0.2712875009,-1.135475039,-0.6271374822
30.79435051,-1.471050024,-16.22805023,-0.1189500093,-1.488849998,2.417937517,0.892925024
30.81435051,-1.471050024,-16.22805023,-0.1189500093,-1.488849998,2.417937517,0.892925024
30.83435051,0.6349500418,-8.452950478,1.680000067,-1.659487486,2.934937477,1.340075016
30.85435051,0.6349500418,-8.452950478,1.680000067,-1.659487486,2.934937477,1.340075016
30.87435051,0.6349500418,-8.452950478,1.680000067,-1.659487486,2.934937477,1.340075016
30.89435051,2.66505003,-7.573050499,-0.6550500393,-0.9953625202,2.643712521,1.555124998
30.91435051,2.66505003,-7.573050499,-0.6550500393,-0.9953625202,2.643712521,1.555124998
30.93435051,2.875050068,-7.552950382,-1.000050068,-0.1836999953,2.006675005,1.597062469
30.95435051,2.875050068,-7.552950382,-1.000050068,-0.1836999953,2.006675005,1.597062469
30.97435051,2.875050068,-7.552950382,-1.000050068,-0.1836999953,2.006675005,1.597062469
30.99435051,2.875050068,-7.552950382,-1.000050068,-0.1836999953,2.006675005,1.597062469
31.01435051,2.875050068,-7.552950382,-1.000050068,-0.1836999953,2.006675005,1.597062469
31.03435051,2.109000206,-6.193950176,1.795050144,-0.3686375022,0.9880750179,-0.2435124964
31.05435051,2.109000206,-6.193950176,1.795050144,-0.3686375022,0.9880750179,-0.2435124964
31.07435051,2.109000206,-6.193950176,1.795050144,-0.3686375022,0.9880750179,-0.2435124964
31.09435051,2.109000206,-6.193950176,1.795050144,-0.3686375022,0.9880750179,-0.2435124964
31.11435051,2.109000206,-6.193950176,1.795050144,-0.3686375022,0.9880750179,-0.2435124964
31.13435051,5.058000088,-9.352950096,-6.093000412,-1.320962548,0.5040749907,-1.403462529
31.15435051,5.058000088,-9.352950096,-6.093000412,-1.320962548,0.5040749907,-1.403462529
31.17435051,7.738950253,-10.06200027,-1.975950122,-1.840987444,0.726549983,-1.099174976
31.19435051,7.738950253,-10.06200027,-1.975950122,-1.840987444,0.726549983,-1.099174976
31.21435051,7.738950253,-10.06200027,-1.975950122,-1.840987444,0.726549983,-1.099174976
31.23435051,7.738950253,-10.06200027,-1.975950122,-1.840987444,0.726549983,-1.099174976
31.25435051,7.738950253,-10.06200027,-1.975950122,-1.840987444,0.726549983,-1.099174976
31.27435051,7.509000301,-6.787050247,-0.8850000501,-0.9220749736,0.6605499983,-1.565024972
31.29435051,7.509000301,-6.787050247,-0.8850000501,-0.9220749736,0.6605499983,-1.565024972
31.31435051,5.938950062,-12.8770504,-0.004050000105,-1.251387477,1.046512485,-1.159399986
31.33435051,5.938950062,-12.8770504,-0.004050000105,-1.251387477,1.046512485,-1.159399986
31.35435051,5.938950062,-12.8770504,-0.004050000105,-1.251387477,1.046512485,-1.159399986
31.37435051,2.98995018,-16.86000061,-2.09100008,-0.08415000141,0.9377499819,-0.2872374952
31.39435051,2.98995018,-16.86000061,-2.09100008,-0.08415000141,0.9377499819,-0.2872374952
31.41435051,2.98995018,-16.86000061,-2.09100008,-0.08415000141,0.9377499819,-0.2872374952
31.43435051,2.98995018,-16.86000061,-2.09100008,-0.08415000141,0.9377499819,-0.2872374952
31.45435051,2.98995018,-16.86000061,-2.09100008,-0.08415000141,0.9377499819,-0.2872374952
31.47435051,2.98995018,-16.86000061,-2.09100008,-0.08415000141,0.9377499819,-0.2872374952
31.49435051,2.98995018,-16.86000061,-2.09100008,-0.08415000141,0.9377499819,-0.2872374952
31.51435051,0.07905000448,-11.55600071,5.874000072,-0.08415000141,0.9377499819,-0.2872374952
31.51435051,0.07905000448,-11.55600071,5.874000072,-0.08415000141,0.9377499819,-0.2872374952
31.55435051,0.07905000448,-11.55600071,5.874000072,-0.08415000141,0.9377499819,-0.2872374952
31.57435051,0.07905000448,-11.55600071,5.874000072,-0.08415000141,0.9377499819,-0.2872374952
31.59435051,0.07905000448,-11.55600071,5.874000072,-0.08415000141,0.9377499819,-0.2872374952
31.61435051,2.148000002,-9.181050301,-2.473950148,0.8157874942,0.7953000069,1.745287538
31.63435051,2.148000002,-9.181050301,-2.473950148,0.8157874942,0.7953000069,1.745287538
31.65435051,2.071050167,-8.358000755,3.480000257,0.5143874884,0.8151000142,1.117324948
31.67435051,2.071050167,-8.358000755,3.480000257,0.5143874884,0.8151000142,1.117324948
31.69435051,2.071050167,-8.358000755,3.480000257,0.5143874884,0.8151000142,1.117324948
31.71435051,2.071050167,-8.358000755,3.480000257,0.5143874884,0.8151000142,1.117324948
31.73435051,2.071050167,-8.358000755,3.480000257,0.5143874884,0.8151000142,1.117324948
31.75435051,2.071050167,-8.358000755,3.480000257,0.5143874884,0.8151000142,1.117324948
31.77435051,2.071050167,-8.358000755,3.480000257,0.5143874884,0.8151000142,1.117324948
31.79435051,2.071050167,-8.358000755,3.480000257,0.5143874884,0.8151000142,1.117324948
31.81435051,2.071050167,-8.358000755,3.480000257,0.5143874884,0.8151000142,1.117324948
31.83435051,2.071050167,-8.358000755,3.480000257,0.5143874884,0.8151000142,1.117324948
31.85435051,7.183950424,-8.913000107,1.411950111,0.05582499877,0.7247624993,-1.595962524
31.87435051,7.183950424,-8.913000107,1.411950111,0.05582499877,0.7247624993,-1.595962524
31.89435051,6.111000061,-9.583050728,0.7230000496,0.01333750039,0.8314625025,-1.941087484
31.91435051,6.111000061,-9.583050728,0.7230000496,0.01333750039,0.8314625025,-1.941087484
31.93435051,6.111000061,-9.583050728,0.7230000496,0.01333750039,0.8314625025,-1.941087484
31.95435051,4.12005043,-10.27305031,0.3019500077,-1.266787529,1.84868753,-1.863537431
31.97435051,4.12005043,-10.27305031,0.3019500077,-1.266787529,1.84868753,-1.863537431
31.99435051,2.185950041,-9.889950752,-0.8080500364,-2.561074972,2.738312483,-1.402912498
32.01435051,2.185950041,-9.889950752,-0.8080500364,-2.561074972,2.738312483,-1.402912498
32.03435051,5.863050461,-12.99195099,0.2250000089,-2.572212458,2.624049902,-0.7739874721
