"Time (s)","Acceleration x (m/s^2)","Acceleration y (m/s^2)","Acceleration z (m/s^2)"
3.303786400E-2,-1.585050106E0,2.863050222E0,9.301950455E0
5.303786400E-2,-1.279050112E0,2.881950140E0,8.707950592E0
7.303786400E-2,-2.064000130E0,2.269050121E0,8.803950310E0
9.303786400E-2,-2.695950031E0,2.920050144E0,6.927000523E0
1.130378640E-1,-1.279050112E0,1.885950089E0,8.536050797E0
1.330378640E-1,2.205000073E-2,1.254000068E0,1.029705048E1
1.530378640E-1,1.114050031E0,1.350000024E0,1.022100067E1
1.730378640E-1,9.990000725E-1,2.020050049E0,1.006800079E1
1.930378640E-1,6.160500050E-1,1.789950132E0,9.856950760E0
2.130378640E-1,1.152000070E0,-8.700000644E-1,1.012500095E1
2.330378640E-1,1.918050051E0,-1.252950072E0,9.934050560E0
2.530378640E-1,2.710500062E-1,7.750500441E-1,8.899950027E0
2.730378640E-1,1.516050100E0,-1.240500063E-1,8.707950592E0
2.930378640E-1,1.993950129E0,-8.505000174E-2,8.574000359E0
3.130378640E-1,2.358000040E0,4.500000179E-1,7.807950497E0
3.330378640E-1,1.993950129E0,4.120500088E-1,6.717000484E0
3.530378640E-1,1.075049996E0,5.070000291E-1,6.525000095E0
3.730378640E-1,7.110000253E-1,-4.680000246E-1,7.291050434E0
3.930378640E-1,2.185950041E0,-8.509500623E-1,7.789050579E0
4.130378640E-1,2.779950142E0,-6.790500283E-1,7.636050224E0
4.330378640E-1,2.434950113E0,-1.195950031E0,9.244050026E0
4.530378640E-1,2.607000113E0,-1.177050114E0,9.607950211E0
4.730378640E-1,2.722050190E0,-7.560000420E-1,9.531000137E0
4.930378640E-1,2.358000040E0,-7.360500097E-1,9.244050026E0
5.130378640E-1,2.626050234E0,-7.170000076E-1,8.938050270E0
5.330378640E-1,2.818050146E0,-8.509500623E-1,8.822999954E0
5.530378640E-1,3.181950092E0,-6.979500055E-1,9.493050575E0
5.730378640E-1,3.909000158E0,-3.150000274E-1,9.666000366E0
5.930378640E-1,4.330950260E0,-4.870500267E-1,9.760950089E0
6.130378640E-1,3.985950232E0,-9.469500184E-1,9.666000366E0
6.330378640E-1,3.220050097E0,-1.311000109E0,1.056600094E1
6.530378640E-1,3.736950159E0,-1.330050111E0,1.119705009E1
6.730378640E-1,4.656000137E0,-1.158000112E0,1.125495052E1
6.930378640E-1,4.330950260E0,-8.130000234E-1,1.073805046E1
7.130378640E-1,4.291950226E0,-1.138050079E0,1.025895023E1
7.330378640E-1,5.383950233E0,-1.750950098E0,1.047000027E1
7.530378640E-1,6.226050377E0,-1.750950098E0,1.108305073E1
7.730378640E-1,6.609000206E0,-1.675050020E0,1.052700043E1
7.930378640E-1,6.820050240E0,-1.501950026E0,9.589050293E0
8.130378640E-1,6.532950401E0,-1.521000028E0,8.956950188E0
8.330378640E-1,7.299000263E0,-1.444950104E0,9.262950897E0
8.530378640E-1,8.734950066E0,-2.211000204E0,9.473999977E0
8.730378640E-1,9.252000809E0,-2.173050165E0,8.421000481E0
8.930378640E-1,9.807000160E0,-1.789950132E0,7.770000458E0
9.130378640E-1,9.922050476E0,-1.215000033E0,7.023000240E0
9.330378640E-1,9.654000282E0,-1.195950031E0,7.003950119E0
9.530378640E-1,9.385950089E0,-1.426050067E0,6.907950401E0
9.730378640E-1,9.098999977E0,-1.081050038E0,6.736050129E0
9.930378640E-1,8.256000519E0,-9.280500412E-1,6.774000168E0
1.013037864E0,7.834950447E0,-1.501950026E0,7.885050297E0
1.033037864E0,7.509000301E0,-1.846950054E0,7.960950375E0
1.053037864E0,6.493950367E0,-1.636050105E0,6.621000290E0
1.073037864E0,6.705000401E0,-1.903950095E0,6.640050411E0
1.093037864E0,7.528050423E0,-2.421000004E0,6.754950523E0
1.113037864E0,7.816050529E0,-2.077050209E0,6.103950500E0
1.133037864E0,8.160000801E0,-1.962000132E0,5.089050293E0
1.153037864E0,9.003000259E0,-2.173050165E0,4.303950310E0
1.173037864E0,1.170300102E1,-1.846950054E0,3.978000164E0
1.193037864E0,1.195200062E1,-1.234050035E0,3.825000286E0
1.213037864E0,1.074600029E1,-1.177050114E0,3.058950186E0
1.233037864E0,1.034295082E1,-1.291950107E0,1.125000000E0
1.253037864E0,9.769050598E0,-8.509500623E-1,1.948050141E0
1.273037864E0,6.763050556E0,-3.150000274E-1,2.044049978E0
1.293037864E0,5.556000233E0,-3.919500113E-1,2.331000090E0
1.313037864E0,6.609000206E0,1.819500029E-1,3.021000147E0
1.333037864E0,8.293950081E0,9.289500713E-1,2.791050196E0
1.353037864E0,8.524050713E0,1.177950025E0,1.891050100E0
1.373037864E0,8.026050568E0,1.254000068E0,4.549500346E-1
1.393037864E0,7.681950569E0,1.216050029E0,-4.630500078E-1
1.413037864E0,8.428950310E0,4.500000179E-1,-1.075950027E0
1.433037864E0,1.093695068E1,-1.348950028E0,9.529500604E-1
1.453037864E0,1.124295044E1,-2.421000004E0,4.189050198E0
1.473037864E0,1.124295044E1,-4.777050018E0,1.050795078E1
1.493037864E0,1.003695011E1,-3.207000256E0,8.631000519E0
1.513037864E0,9.424050331E0,-2.307000160E0,1.470000029E0
1.533037864E0,9.922050476E0,-4.413000107E0,-1.612050056E0
1.553037864E0,1.089900017E1,-6.079050064E0,-8.080500364E-1
1.573037864E0,1.108995056E1,-5.332050323E0,2.059500068E-1
1.593037864E0,9.442950249E0,-3.991950274E0,1.068000078E0
1.613037864E0,8.256000519E0,-2.460000038E0,1.546050072E0
1.633037864E0,7.873050213E0,-1.924050093E0,1.258950114E0
1.653037864E0,6.475050449E0,-1.693950057E0,8.190000653E-1
1.673037864E0,5.344950199E0,-2.383050203E0,2.629500031E-1
1.693037864E0,4.426050186E0,-4.087049961E0,-7.699500322E-1
1.713037864E0,4.291950226E0,-5.734050274E0,-6.169500351E-1
1.733037864E0,5.920050144E0,-6.922050476E0,-4.830000103E-1
1.753037864E0,1.072605038E1,-1.234095097E1,-2.053050041E0
1.773037864E0,1.227705097E1,-1.306800079E1,-8.410050392E0
1.793037864E0,1.155000019E1,-1.178505039E1,-1.765950084E0
1.813037864E0,8.352000237E0,-8.855999947E0,2.236050129E0
1.833037864E0,6.054000378E0,-7.419000149E0,2.772000074E0
1.853037864E0,5.287950039E0,-6.634050369E0,1.144050002E0
1.873037864E0,5.671050072E0,-6.462000370E0,-4.440000355E-1
1.893037864E0,6.130950451E0,-6.940950394E0,-5.400000215E-1
1.913037864E0,6.283950329E0,-6.940950394E0,4.159500301E-1
1.933037864E0,5.767050266E0,-6.940950394E0,9.720000625E-1
1.953037864E0,5.097000122E0,-6.691950321E0,1.029000044E0
1.973037864E0,4.618050098E0,-6.079050064E0,1.507950068E0
1.993037864E0,4.828050137E0,-6.213000298E0,1.290000081E-1
2.013037864E0,5.020050049E0,-6.691950321E0,-9.420000315E-1
2.033037864E0,5.134950161E0,-6.960000515E0,-7.699500322E-1
2.053037864E0,3.793950081E0,-7.458000183E0,2.629500031E-1
2.073037864E0,3.411000252E0,-7.822050571E0,7.609500289E-1
2.093037864E0,3.009000063E0,-8.434050560E0,1.009950042E0
2.113037864E0,1.956000090E0,-8.242950439E0,8.190000653E-1
2.133037864E0,4.240500331E-1,-8.377050400E0,1.680000126E-1
2.153037864E0,2.140500098E-1,-8.875050545E0,-1.380000114E-1
2.173037864E0,5.200500488E-1,-6.711000443E0,-2.719500065E-1
2.193037864E0,8.070000410E-1,-4.393949986E0,5.119500160E-1
2.213037864E0,1.669050097E0,-4.891950130E0,1.489050031E0
2.233037864E0,2.109000206E0,-5.409000397E0,1.891050100E0
2.253037864E0,9.220500588E-1,-5.773050308E0,1.201950073E0
2.273037864E0,-1.605000019E0,-1.023405075E1,-7.995000482E-2
2.293037864E0,-4.113000393E0,-1.745400047E1,1.987050056E0
2.313037864E0,-5.664000034E0,-2.379195023E1,1.182000041E0
2.333037864E0,-3.864000082E0,-2.406000137E1,1.776000142E0
2.353037864E0,-5.130000114E-1,-1.779795074E1,1.393050075E0
2.373037864E0,4.819500148E-1,-1.132605076E1,1.564950109E0
2.393037864E0,9.030000567E-1,-8.224050522E0,5.310000181E-1
2.413037864E0,1.209000111E0,-6.922050476E0,-7.120500207E-1
2.433037864E0,9.600000381E-1,-6.864000320E0,-6.169500351E-1
2.453037864E0,5.200500488E-1,-8.760000229E0,8.380500674E-1
2.473037864E0,-1.879500151E-1,-9.870000839E0,2.236050129E0
2.493037864E0,-7.050000429E-1,-1.059795094E1,2.215950012E0
2.513037864E0,-8.959500194E-1,-1.061700058E1,1.929000139E0
2.533037864E0,-1.011000037E0,-1.013895035E1,1.162950039E0
2.553037864E0,-1.087950110E0,-9.660000801E0,3.405000269E-2
2.573037864E0,-9.150000215E-1,-9.526050568E0,-6.550500393E-1
2.593037864E0,-9.150000215E-1,-9.544950485E0,-5.779500008E-1
2.613037864E0,-9.340500236E-1,-9.448950768E0,1.395000052E-2
2.633037864E0,-9.340500236E-1,-9.507000923E0,7.420500517E-1
2.653037864E0,-5.899500251E-1,-9.258000374E0,7.609500289E-1
2.673037864E0,-6.660000086E-1,-9.870000839E0,5.295000225E-2
2.693037864E0,-3.600000143E-1,-9.966000557E0,-2.910000086E-1
2.713037864E0,-3.220500052E-1,-9.775050163E0,-3.480000198E-1
2.733037864E0,-3.409500122E-1,-9.507000923E0,-7.995000482E-2
2.753037864E0,-6.469500065E-1,-9.352950096E0,1.480500102E-1
2.773037864E0,-9.540000558E-1,-9.391950607E0,2.250000089E-1
2.793037864E0,-6.850500107E-1,-9.352950096E0,3.405000269E-2
2.813037864E0,-4.939500093E-1,-9.238950729E0,-3.289500177E-1
2.833037864E0,-3.019500077E-1,-9.411000252E0,-1.075950027E0
2.853037864E0,-9.195000678E-2,-9.564000130E0,-1.746000051E0
2.873037864E0,5.770500302E-1,-9.583050728E0,-1.593000054E0
2.893037864E0,1.228050113E0,-9.315000534E0,-1.075950027E0
2.913037864E0,1.611000061E0,-9.334050179E0,-1.191000104E0
2.933037864E0,1.899000049E0,-9.564000130E0,-2.206050158E0
2.953037864E0,2.014050007E0,-9.736050606E0,-2.646000147E0
2.973037864E0,1.956000090E0,-9.507000923E0,-2.206050158E0
2.993037864E0,1.497000098E0,-8.989950180E0,-1.708050132E0
3.013037864E0,1.036949992E0,-8.701950073E0,-2.071950197E0
3.033037864E0,9.220500588E-1,-8.875050545E0,-2.569950104E0
3.053037864E0,7.500000596E-1,-9.352950096E0,-2.608050108E0
3.073037864E0,7.110000253E-1,-9.640950203E0,-2.895000219E0
3.093037864E0,9.030000567E-1,-9.315000534E0,-3.124950171E0
3.113037864E0,2.224050045E0,-8.797950745E0,-3.316950083E0
3.133037864E0,2.262000084E0,-8.050950050E0,-4.830000103E-1
3.153037864E0,1.744950056E0,-8.281050682E0,-4.810050011E0
3.173037864E0,-1.110000089E-1,-9.219000816E0,-4.426949978E0
3.193037864E0,6.919500232E-1,-1.000500011E1,-3.853050232E0
3.213037864E0,3.201000214E0,-9.526050568E0,-2.626950026E0
3.233037864E0,3.354000092E0,-9.277050018E0,-3.183000088E0
3.253037864E0,2.779950142E0,-9.352950096E0,-2.838000059E0
3.273037864E0,2.052000046E0,-9.507000923E0,-3.928950071E0
3.293037864E0,2.952000141E0,-9.085050583E0,-4.426949978E0
3.313037864E0,2.703000069E0,-8.491950035E0,-4.293000221E0
3.333037864E0,2.089950085E0,-7.552950382E0,-3.853050232E0
3.353037864E0,2.989950180E0,-6.538950443E0,-3.949050188E0
3.373037864E0,2.014050007E0,-6.883050442E0,-4.389000416E0
3.393037864E0,1.899000049E0,-7.150950432E0,-4.446000099E0
3.413037864E0,1.055999994E0,-6.424050331E0,-4.944000244E0
3.433037864E0,6.540000439E-1,-5.581050396E0,-4.924950123E0
3.453037864E0,4.620000124E-1,-5.964000225E0,-6.073950291E0
3.473037864E0,8.839500546E-1,-6.595950127E0,-6.802050114E0
3.493037864E0,1.477050066E0,-6.997950554E0,-6.361050129E0
3.513037864E0,1.420050025E0,-6.385050297E0,-6.400050163E0
3.533037864E0,2.089950085E0,-5.848950386E0,-6.591000080E0
3.553037864E0,2.491950035E0,-5.715000153E0,-6.667950153E0
3.573037864E0,2.722050190E0,-5.083050251E0,-7.644000530E0
3.593037864E0,3.622050285E0,-4.279050350E0,-7.873950481E0
3.613037864E0,4.503000259E0,-4.087049961E0,-7.683000565E0
3.633037864E0,5.344950199E0,-4.356000423E0,-7.012050152E0
3.653037864E0,5.403000355E0,-4.470000267E0,-7.261050224E0
3.673037864E0,5.422050476E0,-4.317000389E0,-7.549050331E0
3.693037864E0,5.250000477E0,-3.915000200E0,-7.434000492E0
3.713037864E0,5.116050243E0,-3.360000134E0,-8.218950272E0
3.733037864E0,5.230950356E0,-3.493950129E0,-8.773950577E0
3.753037864E0,5.614050388E0,-3.952950239E0,-9.138000488E0
3.773037864E0,5.250000477E0,-4.183050156E0,-9.751049995E0
3.793037864E0,5.326050282E0,-4.107000351E0,-9.751049995E0
3.813037864E0,4.465050220E0,-3.762000084E0,-8.314949989E0
3.833037864E0,4.273050308E0,-3.244950056E0,-7.318950176E0
3.853037864E0,4.483950138E0,-2.689950228E0,-7.204050541E0
3.873037864E0,4.311000347E0,-1.750950098E0,-7.606050491E0
3.893037864E0,4.579950333E0,-8.899500370E-1,-8.334000587E0
3.913037864E0,5.479950428E0,9.000000544E-3,-9.175950050E0
3.933037864E0,6.877050400E0,-1.240500063E-1,-9.540000916E0
3.953037864E0,7.891950607E0,-6.979500055E-1,-9.234000206E0
3.973037864E0,5.977050304E0,-1.387050033E0,-8.659049988E0
3.993037864E0,4.426050186E0,-7.939500213E-1,-9.291000366E0
4.013037864E0,4.981950283E0,3.730500042E-1,-8.026950836E0
4.033037864E0,5.383950233E0,1.540950060E0,-6.820950508E0
4.053037864E0,5.058000088E0,1.426050067E0,-6.093000412E0
4.073037864E0,3.679950237E0,1.063050032E0,-6.400050163E0
4.093037864E0,3.544950247E0,5.839500427E-1,-7.338000298E0
4.113037864E0,2.167050123E0,1.330950022E0,-8.869950294E0
4.133037864E0,2.224050045E0,2.154000044E0,-1.101495075E1
4.153037864E0,3.430950165E0,2.173050165E0,-1.155105019E1
4.173037864E0,4.732950211E0,1.330950022E0,-1.038300037E1
4.193037864E0,5.173050404E0,4.879500270E-1,-8.926950455E0
4.213037864E0,5.191950321E0,6.705000252E-2,-8.046000481E0
4.233037864E0,4.042950153E0,4.120500088E-1,-7.606050491E0
4.253037864E0,3.028050184E0,9.289500713E-1,-7.969950199E0
4.273037864E0,1.840950131E0,1.044000030E0,-8.677950859E0
4.293037864E0,5.580000281E-1,2.001000166E0,-8.946000099E0
4.313037864E0,1.939500123E-1,2.805000067E0,-9.673950195E0
4.333037864E0,9.990000725E-1,2.632950068E0,-9.175950050E0
4.353037864E0,2.722050190E0,1.044000030E0,-9.022950172E0
4.373037864E0,2.185950041E0,7.369500399E-1,-9.100049973E0
4.393037864E0,1.305000067E0,1.924050093E0,-9.616950035E0
4.413037864E0,9.600000381E-1,2.728950024E0,-1.015305042E1
4.433037864E0,3.859500289E-1,2.785950184E0,-1.013400078E1
4.453037864E0,2.520000041E-1,2.154000044E0,-9.540000916E0
4.473037864E0,3.859500289E-1,1.446000099E0,-9.100049973E0
4.493037864E0,2.089950085E0,9.289500713E-1,-8.697000504E0
4.513037864E0,1.975050092E0,6.799500585E-1,-8.851050377E0
4.533037864E0,2.665050030E0,7.750500441E-1,-8.716950417E0
4.553037864E0,3.603000164E0,7.560000420E-1,-8.085000038E0
4.573037864E0,3.832950115E0,7.560000420E-1,-7.855050564E0
4.593037864E0,3.967050076E0,8.520000577E-1,-8.275950432E0
4.613037864E0,4.867050171E0,9.859500527E-1,-8.773950577E0
4.633037864E0,7.030950546E0,1.254000068E0,-8.793000221E0
4.653037864E0,7.854000568E0,1.234950066E0,-8.295000076E0
4.673037864E0,7.050000191E0,6.220500469E-1,-8.008049965E0
4.693037864E0,6.648000240E0,3.160500228E-1,-7.644000530E0
4.713037864E0,6.456000328E0,3.160500228E-1,-7.434000492E0
4.733037864E0,6.571050167E0,4.879500270E-1,-7.434000492E0
4.753037864E0,6.532950401E0,7.750500441E-1,-7.702050209E0
4.773037864E0,6.322050095E0,9.859500527E-1,-7.873950481E0
4.793037864E0,6.150000095E0,9.670500755E-1,-7.969950199E0
4.813037864E0,6.054000378E0,6.409500241E-1,-8.026950836E0
4.833037864E0,5.728050232E0,4.120500088E-1,-8.142000198E0
4.853037864E0,5.307000160E0,5.460000038E-1,-8.142000198E0
4.873037864E0,5.344950199E0,8.329500556E-1,-8.218950272E0
4.893037864E0,5.287950039E0,7.950000167E-1,-8.122950554E0
4.913037864E0,5.365050316E0,5.460000038E-1,-7.989000320E0
4.933037864E0,5.556000233E0,3.730500042E-1,-8.295000076E0
4.953037864E0,5.479950428E0,4.879500270E-1,-8.218950272E0
4.973037864E0,5.575050354E0,7.180500627E-1,-7.969950199E0
4.993037864E0,5.499000072E0,7.950000167E-1,-7.951050282E0
5.013037864E0,5.479950428E0,7.950000167E-1,-8.237999916E0
5.033037864E0,5.326050282E0,6.990000606E-1,-8.391000748E0
5.053037864E0,5.134950161E0,6.610500216E-1,-8.334000587E0
5.073037864E0,5.116050243E0,7.750500441E-1,-8.237999916E0
5.093037864E0,5.038950443E0,8.520000577E-1,-8.257050514E0
5.113037864E0,5.173050404E0,7.750500441E-1,-8.295000076E0
5.133037864E0,5.307000160E0,6.610500216E-1,-8.353050232E0
5.153037864E0,5.307000160E0,6.610500216E-1,-8.179950714E0
5.173037864E0,5.344950199E0,6.799500585E-1,-8.161050797E0
5.193037864E0,5.499000072E0,6.220500469E-1,-8.122950554E0
5.213037864E0,5.518050194E0,6.220500469E-1,-8.046000481E0
5.233037864E0,5.460000038E0,7.369500399E-1,-8.104050636E0
5.253037864E0,5.440950394E0,8.140500188E-1,-8.122950554E0
5.273037864E0,5.499000072E0,7.950000167E-1,-8.179950714E0
5.293037864E0,5.344950199E0,6.610500216E-1,-8.200050354E0
5.313037864E0,5.307000160E0,6.990000606E-1,-8.237999916E0
5.333037864E0,5.211000443E0,8.329500556E-1,-8.257050514E0
5.353037864E0,5.173050404E0,8.899500370E-1,-8.179950714E0
5.373037864E0,5.173050404E0,7.950000167E-1,-8.200050354E0
5.393037864E0,5.173050404E0,7.560000420E-1,-8.179950714E0
5.413037864E0,5.269050121E0,7.180500627E-1,-8.237999916E0
5.433037864E0,5.344950199E0,6.990000606E-1,-8.200050354E0
5.453037864E0,5.191950321E0,6.990000606E-1,-8.257050514E0
5.473037864E0,5.211000443E0,7.750500441E-1,-8.218950272E0
5.493037864E0,5.326050282E0,8.140500188E-1,-8.104050636E0
5.513037864E0,5.422050476E0,7.750500441E-1,-8.065950394E0
5.533037864E0,5.440950394E0,7.369500399E-1,-8.065950394E0
5.553037864E0,5.403000355E0,6.799500585E-1,-8.257050514E0
5.573037864E0,5.556000233E0,7.560000420E-1,-7.836000443E0
5.593037864E0,5.536950111E0,6.610500216E-1,-7.836000443E0
5.613037864E0,5.575050354E0,5.460000038E-1,-8.046000481E0
5.633037864E0,5.614050388E0,4.500000179E-1,-8.257050514E0
5.653037864E0,5.518050194E0,5.839500427E-1,-8.161050797E0
5.673037864E0,5.556000233E0,8.140500188E-1,-7.932000160E0
5.693037864E0,5.556000233E0,8.520000577E-1,-8.104050636E0
5.713037864E0,5.536950111E0,7.950000167E-1,-8.142000198E0
5.733037864E0,5.556000233E0,8.329500556E-1,-8.122950554E0
5.753037864E0,5.518050194E0,8.140500188E-1,-8.046000481E0
5.773037864E0,5.499000072E0,6.799500585E-1,-8.065950394E0
5.793037864E0,5.440950394E0,6.799500585E-1,-8.161050797E0
5.813037864E0,5.518050194E0,6.799500585E-1,-8.257050514E0
5.833037864E0,5.422050476E0,6.610500216E-1,-8.161050797E0
5.853037864E0,5.383950233E0,8.329500556E-1,-8.085000038E0
5.873037864E0,5.383950233E0,8.329500556E-1,-8.065950394E0
5.893037864E0,5.440950394E0,8.140500188E-1,-8.046000481E0
5.913037864E0,5.499000072E0,7.369500399E-1,-8.085000038E0
5.933037864E0,5.536950111E0,6.610500216E-1,-8.142000198E0
5.953037864E0,5.593950272E0,7.180500627E-1,-8.008049965E0
5.973037864E0,5.671050072E0,6.990000606E-1,-7.969950199E0
5.993037864E0,5.689950466E0,6.030000448E-1,-8.026950836E0
6.013037864E0,5.671050072E0,5.839500427E-1,-8.046000481E0
6.033037864E0,5.671050072E0,5.839500427E-1,-7.989000320E0
6.053037864E0,5.671050072E0,5.839500427E-1,-7.989000320E0
6.073037864E0,5.689950466E0,5.839500427E-1,-8.085000038E0
6.093037864E0,5.632950306E0,5.839500427E-1,-8.161050797E0
6.113037864E0,5.499000072E0,6.409500241E-1,-8.237999916E0
6.133037864E0,5.344950199E0,6.409500241E-1,-8.179950714E0
6.153037864E0,5.287950039E0,6.409500241E-1,-8.122950554E0
6.173037864E0,5.307000160E0,6.799500585E-1,-7.951050282E0
6.193037864E0,5.479950428E0,8.140500188E-1,-7.816950321E0
6.213037864E0,5.671050072E0,8.710500598E-1,-7.951050282E0
6.233037864E0,5.805000305E0,9.480000734E-1,-8.179950714E0
6.253037864E0,5.901000500E0,8.140500188E-1,-7.969950199E0
6.273037864E0,5.920050144E0,6.610500216E-1,-7.836000443E0
6.293037864E0,5.842950344E0,6.799500585E-1,-7.912050247E0
6.313037864E0,5.767050266E0,8.140500188E-1,-7.873950481E0
6.333037864E0,5.805000305E0,8.140500188E-1,-7.989000320E0
6.353037864E0,5.499000072E0,1.063050032E0,-8.200050354E0
6.373037864E0,5.116050243E0,8.899500370E-1,-8.122950554E0
6.393037864E0,5.097000122E0,6.990000606E-1,-7.893000603E0
6.413037864E0,5.518050194E0,6.610500216E-1,-8.008049965E0
6.433037864E0,5.689950466E0,6.799500585E-1,-8.085000038E0
6.453037864E0,5.748000145E0,7.950000167E-1,-8.065950394E0
6.473037864E0,5.842950344E0,6.990000606E-1,-7.989000320E0
6.493037864E0,5.767050266E0,6.409500241E-1,-7.932000160E0
6.513037864E0,5.652000427E0,6.030000448E-1,-7.932000160E0
6.533037864E0,5.614050388E0,6.990000606E-1,-7.932000160E0
6.553037864E0,5.614050388E0,7.560000420E-1,-7.969950199E0
6.573037864E0,5.689950466E0,8.520000577E-1,-8.065950394E0
6.593037864E0,5.632950306E0,8.329500556E-1,-8.065950394E0
6.613037864E0,5.536950111E0,8.520000577E-1,-7.912050247E0
6.633037864E0,5.575050354E0,7.750500441E-1,-7.951050282E0
6.653037864E0,5.593950272E0,7.180500627E-1,-7.989000320E0
6.673037864E0,5.593950272E0,8.329500556E-1,-7.951050282E0
6.693037864E0,5.689950466E0,8.520000577E-1,-7.951050282E0
6.713037864E0,5.709000111E0,8.710500598E-1,-7.951050282E0
6.733037864E0,5.767050266E0,7.950000167E-1,-8.085000038E0
6.753037864E0,5.689950466E0,8.140500188E-1,-7.989000320E0
6.773037864E0,5.652000427E0,9.859500527E-1,-7.912050247E0
6.793037864E0,5.689950466E0,1.158000112E0,-7.893000603E0
6.813037864E0,5.652000427E0,8.329500556E-1,-8.104050636E0
6.833037864E0,5.805000305E0,4.879500270E-1,-8.237999916E0
6.853037864E0,5.938950062E0,9.090000391E-1,-8.122950554E0
6.873037864E0,5.440950394E0,1.905000091E0,-8.161050797E0
6.893037864E0,5.211000443E0,9.090000391E-1,-7.375950336E0
6.913037864E0,5.748000145E0,2.580000162E-1,-8.026950836E0
6.933037864E0,5.920050144E0,1.440000087E-1,-7.989000320E0
6.953037864E0,5.958000183E0,5.460000038E-1,-7.663050175E0
6.973037864E0,6.016050339E0,8.520000577E-1,-7.644000530E0
6.993037864E0,5.824050426E0,1.101000071E0,-7.893000603E0
7.013037864E0,5.997000217E0,6.220500469E-1,-7.969950199E0
7.033037864E0,5.689950466E0,2.970000207E-1,-8.122950554E0
7.053037864E0,5.307000160E0,1.044000030E0,-7.836000443E0
7.073037864E0,5.479950428E0,1.273050070E0,-8.008049965E0
7.093037864E0,5.767050266E0,1.081950068E0,-8.104050636E0
7.113037864E0,5.709000111E0,7.180500627E-1,-8.008049965E0
7.133037864E0,5.652000427E0,6.990000606E-1,-7.893000603E0
7.153037864E0,5.671050072E0,7.560000420E-1,-7.989000320E0
7.173037864E0,5.767050266E0,7.750500441E-1,-8.008049965E0
7.193037864E0,5.689950466E0,8.140500188E-1,-7.989000320E0
7.213037864E0,5.632950306E0,6.990000606E-1,-8.104050636E0
7.233037864E0,5.518050194E0,8.329500556E-1,-7.989000320E0
7.253037864E0,5.518050194E0,7.750500441E-1,-7.932000160E0
7.273037864E0,5.614050388E0,7.180500627E-1,-7.951050282E0
7.293037864E0,5.709000111E0,7.750500441E-1,-7.951050282E0
7.313037864E0,5.767050266E0,7.750500441E-1,-8.046000481E0
7.333037864E0,5.689950466E0,7.750500441E-1,-7.951050282E0
7.353037864E0,5.575050354E0,7.750500441E-1,-7.969950199E0
7.373037864E0,5.652000427E0,7.750500441E-1,-8.026950836E0
7.393037864E0,5.632950306E0,7.750500441E-1,-8.008049965E0
7.413037864E0,5.593950272E0,7.560000420E-1,-7.969950199E0
7.433037864E0,5.671050072E0,7.180500627E-1,-8.104050636E0
7.453037864E0,5.671050072E0,7.750500441E-1,-8.085000038E0
7.473037864E0,5.556000233E0,8.140500188E-1,-7.969950199E0
7.493037864E0,5.614050388E0,8.520000577E-1,-7.951050282E0
7.513037864E0,5.709000111E0,9.090000391E-1,-7.951050282E0
7.533037864E0,5.748000145E0,8.899500370E-1,-7.969950199E0
7.553037864E0,5.785950184E0,8.899500370E-1,-8.008049965E0
7.573037864E0,5.767050266E0,9.090000391E-1,-7.855050564E0
7.593037864E0,5.689950466E0,7.560000420E-1,-7.989000320E0
7.613037864E0,5.614050388E0,6.990000606E-1,-8.161050797E0
7.633037864E0,5.536950111E0,7.950000167E-1,-8.026950836E0
7.653037864E0,5.536950111E0,8.520000577E-1,-7.951050282E0
7.673037864E0,5.614050388E0,8.140500188E-1,-7.989000320E0
7.693037864E0,5.785950184E0,8.329500556E-1,-7.951050282E0
7.713037864E0,5.689950466E0,7.950000167E-1,-8.046000481E0
7.733037864E0,5.614050388E0,7.560000420E-1,-7.932000160E0
7.753037864E0,5.824050426E0,8.899500370E-1,-7.969950199E0
7.773037864E0,5.824050426E0,9.670500755E-1,-7.951050282E0
7.793037864E0,5.671050072E0,8.329500556E-1,-8.046000481E0
7.813037864E0,5.593950272E0,8.140500188E-1,-7.912050247E0
7.833037864E0,5.652000427E0,7.750500441E-1,-8.008049965E0
7.853037864E0,5.652000427E0,8.140500188E-1,-8.026950836E0
7.873037864E0,5.614050388E0,7.950000167E-1,-7.932000160E0
7.893037864E0,5.614050388E0,8.140500188E-1,-7.951050282E0
7.913037864E0,5.728050232E0,8.710500598E-1,-7.989000320E0
7.933037864E0,5.748000145E0,8.520000577E-1,-8.008049965E0
7.953037864E0,5.748000145E0,9.090000391E-1,-7.932000160E0
7.973037864E0,5.748000145E0,8.520000577E-1,-7.951050282E0
7.993037864E0,5.671050072E0,8.140500188E-1,-8.008049965E0
8.013037864E0,5.575050354E0,7.750500441E-1,-7.912050247E0
8.033037864E0,5.518050194E0,7.950000167E-1,-8.046000481E0
8.053037864E0,5.499000072E0,8.329500556E-1,-7.989000320E0
8.073037864E0,5.556000233E0,8.140500188E-1,-8.065950394E0
8.093037864E0,5.593950272E0,8.140500188E-1,-8.065950394E0
8.113037864E0,5.593950272E0,8.140500188E-1,-7.969950199E0
8.133037864E0,5.652000427E0,8.329500556E-1,-7.951050282E0
8.153037864E0,5.728050232E0,7.369500399E-1,-7.951050282E0
8.173037864E0,5.709000111E0,7.560000420E-1,-7.969950199E0
8.193037864E0,5.709000111E0,8.520000577E-1,-7.836000443E0
8.213037864E0,5.805000305E0,9.480000734E-1,-7.893000603E0
8.233037864E0,5.824050426E0,8.329500556E-1,-7.989000320E0
8.253037864E0,5.824050426E0,7.560000420E-1,-8.085000038E0
8.273037864E0,5.728050232E0,8.329500556E-1,-7.969950199E0
8.293037864E0,5.536950111E0,1.024049997E0,-7.855050564E0
8.313037864E0,5.536950111E0,1.063050032E0,-7.873950481E0
8.333037864E0,5.614050388E0,9.289500713E-1,-8.008049965E0
8.353037864E0,5.748000145E0,8.710500598E-1,-8.085000038E0
8.373037864E0,5.709000111E0,8.710500598E-1,-8.085000038E0
8.393037864E0,5.689950466E0,8.710500598E-1,-7.932000160E0
8.413037864E0,5.536950111E0,9.090000391E-1,-7.893000603E0
8.433037864E0,5.556000233E0,7.950000167E-1,-7.912050247E0
8.453037864E0,5.671050072E0,7.750500441E-1,-7.989000320E0
8.473037864E0,5.728050232E0,8.710500598E-1,-8.008049965E0
8.493037864E0,5.767050266E0,9.670500755E-1,-7.893000603E0
8.513037864E0,5.785950184E0,9.090000391E-1,-7.912050247E0
8.533037864E0,5.785950184E0,8.140500188E-1,-7.873950481E0
8.553037864E0,5.881950378E0,7.369500399E-1,-7.932000160E0
8.573037864E0,5.901000500E0,7.950000167E-1,-7.912050247E0
8.593037864E0,5.824050426E0,8.710500598E-1,-7.951050282E0
8.613037864E0,5.767050266E0,9.090000391E-1,-7.836000443E0
8.633037864E0,5.709000111E0,9.859500527E-1,-7.893000603E0
8.653037864E0,5.881950378E0,1.004999995E0,-7.873950481E0
8.673037864E0,5.901000500E0,9.670500755E-1,-7.912050247E0
8.693037864E0,5.881950378E0,8.899500370E-1,-7.969950199E0
8.713037864E0,5.863050461E0,8.520000577E-1,-7.912050247E0
8.733037864E0,5.881950378E0,9.670500755E-1,-8.008049965E0
8.753037864E0,5.785950184E0,9.090000391E-1,-7.797000408E0
8.773037864E0,5.709000111E0,8.899500370E-1,-7.740000248E0
8.793037864E0,5.842950344E0,8.520000577E-1,-7.873950481E0
8.813037864E0,5.863050461E0,7.369500399E-1,-8.046000481E0
8.833037864E0,5.881950378E0,7.750500441E-1,-7.893000603E0
8.853037864E0,5.709000111E0,8.140500188E-1,-7.989000320E0
8.873037864E0,5.499000072E0,7.950000167E-1,-8.046000481E0
8.893037864E0,5.422050476E0,8.140500188E-1,-7.912050247E0
8.913037864E0,5.460000038E0,8.899500370E-1,-8.026950836E0
8.933037864E0,5.593950272E0,9.090000391E-1,-8.026950836E0
8.953037864E0,5.728050232E0,8.710500598E-1,-7.836000443E0
8.973037864E0,5.805000305E0,7.950000167E-1,-7.663050175E0
8.993037864E0,5.842950344E0,7.560000420E-1,-7.644000530E0
9.013037864E0,5.748000145E0,8.140500188E-1,-7.932000160E0
9.033037864E0,5.689950466E0,8.329500556E-1,-8.237999916E0
9.053037864E0,5.652000427E0,9.090000391E-1,-8.065950394E0
9.073037864E0,5.536950111E0,8.899500370E-1,-7.777950287E0
9.093037864E0,5.365050316E0,8.899500370E-1,-8.026950836E0
9.113037864E0,5.097000122E0,8.520000577E-1,-8.026950836E0
9.133037864E0,4.503000259E0,4.879500270E-1,-8.046000481E0
9.153037864E0,3.985950232E0,1.440000087E-1,-8.122950554E0
9.173037864E0,3.775050163E0,-9.000000544E-3,-8.218950272E0
9.193037864E0,3.793950081E0,8.595000207E-2,-8.640000343E0
9.213037864E0,4.789950371E0,7.750500441E-1,-8.985000610E0
9.233037864E0,6.034950256E0,1.387950063E0,-8.985000610E0
9.253037864E0,6.073050499E0,7.369500399E-1,-8.563050270E0
9.273037864E0,6.456000328E0,1.050000042E-1,-8.161050797E0
9.293037864E0,6.628050327E0,1.630500108E-1,-7.969950199E0
9.313037864E0,6.169050217E0,6.030000448E-1,-7.969950199E0
9.333037864E0,5.403000355E0,7.369500399E-1,-7.932000160E0
9.353037864E0,5.173050404E0,5.650500059E-1,-8.046000481E0
9.373037864E0,5.154000282E0,3.349500299E-1,-8.085000038E0
9.393037864E0,5.154000282E0,1.819500029E-1,-8.218950272E0
9.413037864E0,5.307000160E0,2.970000207E-1,-8.122950554E0
9.433037864E0,5.326050282E0,3.540000021E-1,-8.275950432E0
9.453037864E0,5.173050404E0,2.970000207E-1,-8.237999916E0
9.473037864E0,5.097000122E0,3.919500113E-1,-8.257050514E0
9.493037864E0,5.038950443E0,3.349500299E-1,-8.353050232E0
9.513037864E0,5.020050049E0,2.970000207E-1,-8.371950150E0
9.533037864E0,4.981950283E0,3.349500299E-1,-8.353050232E0
9.553037864E0,5.020050049E0,3.919500113E-1,-8.353050232E0
9.573037864E0,5.038950443E0,2.779500186E-1,-8.371950150E0
9.593037864E0,5.058000088E0,2.779500186E-1,-8.353050232E0
9.613037864E0,5.020050049E0,2.779500186E-1,-8.334000587E0
9.633037864E0,5.058000088E0,2.779500186E-1,-8.295000076E0
9.653037864E0,5.020050049E0,2.779500186E-1,-8.391000748E0
9.673037864E0,5.020050049E0,2.010000050E-1,-8.218950272E0
9.693037864E0,5.191950321E0,1.440000087E-1,-8.200050354E0
9.713037864E0,5.518050194E0,2.389500141E-1,-8.218950272E0
9.733037864E0,5.460000038E0,3.919500113E-1,-8.257050514E0
9.753037864E0,5.287950039E0,3.349500299E-1,-8.275950432E0
9.773037864E0,5.097000122E0,2.389500141E-1,-8.371950150E0
9.793037864E0,4.867050171E0,2.779500186E-1,-8.467950821E0
9.813037864E0,4.656000137E0,3.160500228E-1,-8.524950027E0
9.833037864E0,4.444950104E0,3.160500228E-1,-8.583000183E0
9.853037864E0,4.369050026E0,3.160500228E-1,-8.583000183E0
9.873037864E0,4.254000187E0,2.779500186E-1,-8.583000183E0
9.893037864E0,4.350000381E0,4.120500088E-1,-8.602050781E0
9.913037864E0,4.483950138E0,4.690500200E-1,-8.602050781E0
9.933037864E0,4.618050098E0,4.690500200E-1,-8.524950027E0
9.953037864E0,4.693950176E0,4.309500158E-1,-8.563050270E0
9.973037864E0,4.789950371E0,4.120500088E-1,-8.506050110E0
9.993037864E0,4.771050453E0,4.120500088E-1,-8.467950821E0
1.001303786E1,4.809000015E0,3.349500299E-1,-8.487000465E0
1.003303786E1,4.809000015E0,3.540000021E-1,-8.410050392E0
1.005303786E1,4.867050171E0,3.730500042E-1,-8.410050392E0
1.007303786E1,4.924050331E0,4.120500088E-1,-8.449049950E0
1.009303786E1,4.924050331E0,4.120500088E-1,-8.410050392E0
1.011303786E1,4.905000210E0,4.309500158E-1,-8.391000748E0
1.013303786E1,4.905000210E0,4.690500200E-1,-8.449049950E0
1.015303786E1,4.885950089E0,5.260500312E-1,-8.467950821E0
1.017303786E1,4.905000210E0,5.070000291E-1,-8.391000748E0
1.019303786E1,4.905000210E0,5.460000038E-1,-8.391000748E0
1.021303786E1,4.905000210E0,5.839500427E-1,-8.410050392E0
1.023303786E1,4.905000210E0,6.030000448E-1,-8.449049950E0
1.025303786E1,4.905000210E0,5.070000291E-1,-8.353050232E0
1.027303786E1,4.963050365E0,5.070000291E-1,-8.428950310E0
1.029303786E1,4.963050365E0,5.070000291E-1,-8.391000748E0
1.031303786E1,4.981950283E0,4.690500200E-1,-8.391000748E0
1.033303786E1,4.885950089E0,4.879500270E-1,-8.428950310E0
1.035303786E1,4.828050137E0,5.070000291E-1,-8.353050232E0
1.037303786E1,4.789950371E0,5.070000291E-1,-8.467950821E0
1.039303786E1,4.828050137E0,5.460000038E-1,-8.487000465E0
1.041303786E1,4.828050137E0,5.260500312E-1,-8.428950310E0
1.043303786E1,4.809000015E0,4.879500270E-1,-8.467950821E0
1.045303786E1,4.771050453E0,5.070000291E-1,-8.428950310E0
1.047303786E1,4.789950371E0,4.879500270E-1,-8.371950150E0
1.049303786E1,4.809000015E0,5.260500312E-1,-8.449049950E0
1.051303786E1,4.809000015E0,5.650500059E-1,-8.428950310E0
1.053303786E1,4.867050171E0,5.260500312E-1,-8.449049950E0
1.055303786E1,4.905000210E0,5.070000291E-1,-8.428950310E0
1.057303786E1,4.905000210E0,5.070000291E-1,-8.449049950E0
1.059303786E1,4.867050171E0,5.260500312E-1,-8.428950310E0
1.061303786E1,4.885950089E0,4.500000179E-1,-8.410050392E0
1.063303786E1,4.848000050E0,4.309500158E-1,-8.391000748E0
1.065303786E1,4.789950371E0,4.500000179E-1,-8.428950310E0
1.067303786E1,4.828050137E0,4.879500270E-1,-8.449049950E0
1.069303786E1,4.809000015E0,4.879500270E-1,-8.449049950E0
1.071303786E1,4.848000050E0,5.070000291E-1,-8.487000465E0
1.073303786E1,4.867050171E0,5.070000291E-1,-8.487000465E0
1.075303786E1,4.771050453E0,4.690500200E-1,-8.428950310E0
1.077303786E1,4.771050453E0,4.690500200E-1,-8.467950821E0
1.079303786E1,4.789950371E0,4.120500088E-1,-8.467950821E0
1.081303786E1,4.848000050E0,3.919500113E-1,-8.467950821E0
1.083303786E1,4.771050453E0,3.919500113E-1,-8.449049950E0
1.085303786E1,4.789950371E0,3.919500113E-1,-8.487000465E0
1.087303786E1,4.732950211E0,3.919500113E-1,-8.449049950E0
1.089303786E1,4.714050293E0,4.500000179E-1,-8.524950027E0
1.091303786E1,4.714050293E0,4.309500158E-1,-8.506050110E0
1.093303786E1,4.693950176E0,4.879500270E-1,-8.467950821E0
1.095303786E1,4.714050293E0,5.260500312E-1,-8.524950027E0
1.097303786E1,4.752000332E0,4.879500270E-1,-8.467950821E0
1.099303786E1,4.809000015E0,4.879500270E-1,-8.449049950E0
1.101303786E1,4.789950371E0,5.070000291E-1,-8.487000465E0
1.103303786E1,4.752000332E0,5.260500312E-1,-8.449049950E0
1.105303786E1,4.732950211E0,5.260500312E-1,-8.487000465E0
1.107303786E1,4.732950211E0,4.879500270E-1,-8.506050110E0
1.109303786E1,4.752000332E0,4.690500200E-1,-8.487000465E0
1.111303786E1,4.714050293E0,4.500000179E-1,-8.506050110E0
1.113303786E1,4.732950211E0,4.500000179E-1,-8.487000465E0
1.115303786E1,4.752000332E0,4.690500200E-1,-8.449049950E0
1.117303786E1,4.732950211E0,4.500000179E-1,-8.487000465E0
1.119303786E1,4.752000332E0,4.690500200E-1,-8.506050110E0
1.121303786E1,4.732950211E0,4.500000179E-1,-8.487000465E0
1.123303786E1,4.693950176E0,4.309500158E-1,-8.487000465E0
1.125303786E1,4.714050293E0,4.690500200E-1,-8.449049950E0
1.127303786E1,4.714050293E0,4.500000179E-1,-8.449049950E0
1.129303786E1,4.714050293E0,4.309500158E-1,-8.487000465E0
1.131303786E1,4.752000332E0,4.690500200E-1,-8.563050270E0
1.133303786E1,4.771050453E0,4.879500270E-1,-8.506050110E0
1.135303786E1,4.771050453E0,4.690500200E-1,-8.506050110E0
1.137303786E1,4.771050453E0,4.690500200E-1,-8.449049950E0
1.139303786E1,4.732950211E0,4.500000179E-1,-8.506050110E0
1.141303786E1,4.714050293E0,4.309500158E-1,-8.467950821E0
1.143303786E1,4.771050453E0,4.309500158E-1,-8.487000465E0
1.145303786E1,4.732950211E0,4.500000179E-1,-8.487000465E0
1.147303786E1,4.732950211E0,4.690500200E-1,-8.467950821E0
1.149303786E1,4.752000332E0,4.500000179E-1,-8.467950821E0
1.151303786E1,4.732950211E0,4.690500200E-1,-8.467950821E0
1.153303786E1,4.752000332E0,5.070000291E-1,-8.524950027E0
1.155303786E1,4.732950211E0,4.690500200E-1,-8.467950821E0
1.157303786E1,4.732950211E0,4.500000179E-1,-8.506050110E0
1.159303786E1,4.714050293E0,4.690500200E-1,-8.467950821E0
1.161303786E1,4.732950211E0,4.690500200E-1,-8.487000465E0
1.163303786E1,4.693950176E0,4.500000179E-1,-8.524950027E0
1.165303786E1,4.714050293E0,4.309500158E-1,-8.467950821E0
1.167303786E1,4.732950211E0,4.690500200E-1,-8.467950821E0
1.169303786E1,4.752000332E0,4.120500088E-1,-8.467950821E0
1.171303786E1,4.732950211E0,4.879500270E-1,-8.506050110E0
1.173303786E1,4.752000332E0,5.070000291E-1,-8.487000465E0
1.175303786E1,4.732950211E0,4.690500200E-1,-8.467950821E0
1.177303786E1,4.771050453E0,4.879500270E-1,-8.487000465E0
1.179303786E1,4.752000332E0,4.879500270E-1,-8.487000465E0
1.181303786E1,4.732950211E0,4.690500200E-1,-8.467950821E0
1.183303786E1,4.693950176E0,4.879500270E-1,-8.506050110E0
1.185303786E1,4.752000332E0,4.690500200E-1,-8.506050110E0
1.187303786E1,4.752000332E0,4.500000179E-1,-8.524950027E0
1.189303786E1,4.732950211E0,4.690500200E-1,-8.506050110E0
1.191303786E1,4.693950176E0,4.120500088E-1,-8.449049950E0
1.193303786E1,4.732950211E0,5.070000291E-1,-8.506050110E0
1.195303786E1,4.714050293E0,4.690500200E-1,-8.524950027E0
1.197303786E1,4.675050259E0,4.500000179E-1,-8.524950027E0
1.199303786E1,4.693950176E0,5.070000291E-1,-8.467950821E0
1.201303786E1,4.732950211E0,5.260500312E-1,-8.506050110E0
1.203303786E1,4.693950176E0,5.070000291E-1,-8.467950821E0
1.205303786E1,4.732950211E0,4.879500270E-1,-8.524950027E0
1.207303786E1,4.714050293E0,5.260500312E-1,-8.487000465E0
1.209303786E1,4.732950211E0,5.070000291E-1,-8.506050110E0
1.211303786E1,4.732950211E0,5.260500312E-1,-8.487000465E0
1.213303786E1,4.714050293E0,5.260500312E-1,-8.544000626E0
1.215303786E1,4.714050293E0,4.879500270E-1,-8.487000465E0
1.217303786E1,4.675050259E0,5.070000291E-1,-8.487000465E0
1.219303786E1,4.656000137E0,4.690500200E-1,-8.487000465E0
1.221303786E1,4.636950016E0,4.690500200E-1,-8.487000465E0
1.223303786E1,4.675050259E0,4.879500270E-1,-8.506050110E0
1.225303786E1,4.693950176E0,4.879500270E-1,-8.506050110E0
1.227303786E1,4.714050293E0,5.070000291E-1,-8.544000626E0
1.229303786E1,4.714050293E0,4.879500270E-1,-8.524950027E0
1.231303786E1,4.752000332E0,4.879500270E-1,-8.487000465E0
1.233303786E1,4.752000332E0,5.070000291E-1,-8.467950821E0
1.235303786E1,4.714050293E0,5.260500312E-1,-8.487000465E0
1.237303786E1,4.752000332E0,4.879500270E-1,-8.506050110E0
1.239303786E1,4.714050293E0,4.690500200E-1,-8.544000626E0
1.241303786E1,4.732950211E0,4.690500200E-1,-8.467950821E0
1.243303786E1,4.675050259E0,4.690500200E-1,-8.467950821E0
1.245303786E1,4.675050259E0,4.879500270E-1,-8.524950027E0
1.247303786E1,4.714050293E0,4.879500270E-1,-8.506050110E0
1.249303786E1,4.732950211E0,4.879500270E-1,-8.524950027E0
1.251303786E1,4.714050293E0,5.070000291E-1,-8.544000626E0
1.253303786E1,4.693950176E0,5.070000291E-1,-8.544000626E0
1.255303786E1,4.752000332E0,4.879500270E-1,-8.544000626E0
1.257303786E1,4.752000332E0,4.500000179E-1,-8.563050270E0
1.259303786E1,4.693950176E0,4.690500200E-1,-8.487000465E0
1.261303786E1,4.636950016E0,5.260500312E-1,-8.544000626E0
1.263303786E1,4.714050293E0,5.260500312E-1,-8.487000465E0
1.265303786E1,4.732950211E0,4.879500270E-1,-8.487000465E0
1.267303786E1,4.714050293E0,5.260500312E-1,-8.487000465E0
1.269303786E1,4.693950176E0,5.460000038E-1,-8.524950027E0
1.271303786E1,4.771050453E0,5.070000291E-1,-8.524950027E0
1.273303786E1,4.771050453E0,5.070000291E-1,-8.544000626E0
1.275303786E1,4.752000332E0,5.070000291E-1,-8.544000626E0
1.277303786E1,4.714050293E0,5.260500312E-1,-8.467950821E0
1.279303786E1,4.732950211E0,5.260500312E-1,-8.487000465E0
1.281303786E1,4.732950211E0,5.460000038E-1,-8.506050110E0
1.283303786E1,4.693950176E0,5.070000291E-1,-8.487000465E0
1.285303786E1,4.732950211E0,5.070000291E-1,-8.487000465E0
1.287303786E1,4.714050293E0,5.460000038E-1,-8.524950027E0
1.289303786E1,4.693950176E0,5.070000291E-1,-8.524950027E0
1.291303786E1,4.752000332E0,4.690500200E-1,-8.487000465E0
1.293303786E1,4.693950176E0,5.070000291E-1,-8.487000465E0
1.295303786E1,4.693950176E0,5.260500312E-1,-8.487000465E0
1.297303786E1,4.656000137E0,4.879500270E-1,-8.487000465E0
1.299303786E1,4.675050259E0,4.879500270E-1,-8.524950027E0
1.301303786E1,4.693950176E0,4.879500270E-1,-8.506050110E0
1.303303786E1,4.693950176E0,5.070000291E-1,-8.506050110E0
1.305303786E1,4.693950176E0,5.260500312E-1,-8.506050110E0
1.307303786E1,4.732950211E0,5.260500312E-1,-8.524950027E0
1.309303786E1,4.809000015E0,4.690500200E-1,-8.487000465E0
1.311303786E1,4.675050259E0,5.260500312E-1,-8.487000465E0
1.313303786E1,4.714050293E0,4.690500200E-1,-8.506050110E0
1.315303786E1,4.714050293E0,4.690500200E-1,-8.467950821E0
1.317303786E1,4.693950176E0,5.070000291E-1,-8.487000465E0
1.319303786E1,4.714050293E0,5.070000291E-1,-8.524950027E0
1.321303786E1,4.752000332E0,4.879500270E-1,-8.428950310E0
1.323303786E1,4.714050293E0,4.879500270E-1,-8.467950821E0
1.325303786E1,4.714050293E0,4.500000179E-1,-8.524950027E0
1.327303786E1,4.693950176E0,4.690500200E-1,-8.524950027E0
1.329303786E1,4.714050293E0,5.260500312E-1,-8.524950027E0
1.331303786E1,4.752000332E0,5.460000038E-1,-8.524950027E0
1.333303786E1,4.732950211E0,4.879500270E-1,-8.524950027E0
1.335303786E1,4.693950176E0,5.070000291E-1,-8.506050110E0
1.337303786E1,4.656000137E0,4.879500270E-1,-8.487000465E0
1.339303786E1,4.636950016E0,4.500000179E-1,-8.449049950E0
1.341303786E1,4.675050259E0,4.120500088E-1,-8.524950027E0
1.343303786E1,4.656000137E0,4.879500270E-1,-8.487000465E0
1.345303786E1,4.732950211E0,4.690500200E-1,-8.524950027E0
1.347303786E1,4.693950176E0,5.070000291E-1,-8.524950027E0
1.349303786E1,4.693950176E0,5.070000291E-1,-8.506050110E0
1.351303786E1,4.732950211E0,4.879500270E-1,-8.487000465E0
1.353303786E1,4.693950176E0,5.260500312E-1,-8.467950821E0
1.355303786E1,4.675050259E0,4.879500270E-1,-8.506050110E0
1.357303786E1,4.675050259E0,5.260500312E-1,-8.467950821E0
1.359303786E1,4.656000137E0,5.260500312E-1,-8.506050110E0
1.361303786E1,4.675050259E0,4.879500270E-1,-8.524950027E0
1.363303786E1,4.693950176E0,4.879500270E-1,-8.544000626E0
1.365303786E1,4.714050293E0,4.879500270E-1,-8.506050110E0
1.367303786E1,4.675050259E0,5.460000038E-1,-8.524950027E0
1.369303786E1,4.656000137E0,5.070000291E-1,-8.506050110E0
1.371303786E1,4.693950176E0,4.690500200E-1,-8.487000465E0
1.373303786E1,4.714050293E0,4.879500270E-1,-8.467950821E0
1.375303786E1,4.693950176E0,5.260500312E-1,-8.487000465E0
1.377303786E1,4.675050259E0,4.690500200E-1,-8.467950821E0
1.379303786E1,4.693950176E0,4.879500270E-1,-8.467950821E0
1.381303786E1,4.771050453E0,5.070000291E-1,-8.487000465E0
1.383303786E1,4.714050293E0,5.460000038E-1,-8.506050110E0
1.385303786E1,4.693950176E0,5.070000291E-1,-8.487000465E0
1.387303786E1,4.636950016E0,4.879500270E-1,-8.506050110E0
1.389303786E1,4.675050259E0,4.879500270E-1,-8.506050110E0
1.391303786E1,4.714050293E0,4.879500270E-1,-8.506050110E0
1.393303786E1,4.714050293E0,4.879500270E-1,-8.506050110E0
1.395303786E1,4.656000137E0,4.500000179E-1,-8.506050110E0
1.397303786E1,4.675050259E0,5.070000291E-1,-8.506050110E0
1.399303786E1,4.693950176E0,4.690500200E-1,-8.524950027E0
1.401303786E1,4.714050293E0,4.879500270E-1,-8.524950027E0
1.403303786E1,4.693950176E0,4.500000179E-1,-8.544000626E0
1.405303786E1,4.656000137E0,5.260500312E-1,-8.506050110E0
1.407303786E1,4.693950176E0,4.879500270E-1,-8.544000626E0
1.409303786E1,4.714050293E0,5.070000291E-1,-8.506050110E0
1.411303786E1,4.714050293E0,4.690500200E-1,-8.524950027E0
1.413303786E1,4.675050259E0,5.070000291E-1,-8.506050110E0
1.415303786E1,4.656000137E0,5.070000291E-1,-8.487000465E0
1.417303786E1,4.714050293E0,5.070000291E-1,-8.524950027E0
1.419303786E1,4.714050293E0,4.690500200E-1,-8.524950027E0
1.421303786E1,4.636950016E0,4.690500200E-1,-8.487000465E0
1.423303786E1,4.693950176E0,5.070000291E-1,-8.544000626E0
1.425303786E1,4.693950176E0,5.070000291E-1,-8.524950027E0
1.427303786E1,4.714050293E0,5.070000291E-1,-8.544000626E0
1.429303786E1,4.675050259E0,5.260500312E-1,-8.544000626E0
1.431303786E1,4.675050259E0,4.879500270E-1,-8.506050110E0
1.433303786E1,4.693950176E0,5.070000291E-1,-8.487000465E0
1.435303786E1,4.675050259E0,5.070000291E-1,-8.544000626E0
1.437303786E1,4.675050259E0,4.879500270E-1,-8.544000626E0
1.439303786E1,4.714050293E0,5.260500312E-1,-8.524950027E0
1.441303786E1,4.714050293E0,4.879500270E-1,-8.524950027E0
1.443303786E1,4.714050293E0,5.260500312E-1,-8.524950027E0
1.445303786E1,4.656000137E0,5.070000291E-1,-8.544000626E0
1.447303786E1,4.656000137E0,5.460000038E-1,-8.524950027E0
1.449303786E1,4.656000137E0,5.260500312E-1,-8.467950821E0
1.451303786E1,4.693950176E0,4.690500200E-1,-8.506050110E0
1.453303786E1,4.618050098E0,5.070000291E-1,-8.506050110E0
1.455303786E1,4.675050259E0,4.879500270E-1,-8.524950027E0
1.457303786E1,4.675050259E0,5.260500312E-1,-8.506050110E0
1.459303786E1,4.693950176E0,5.070000291E-1,-8.544000626E0
1.461303786E1,4.714050293E0,5.260500312E-1,-8.524950027E0
1.463303786E1,4.675050259E0,5.260500312E-1,-8.544000626E0
1.465303786E1,4.656000137E0,4.879500270E-1,-8.506050110E0
1.467303786E1,4.656000137E0,5.460000038E-1,-8.506050110E0
1.469303786E1,4.636950016E0,4.879500270E-1,-8.524950027E0
1.471303786E1,4.675050259E0,4.879500270E-1,-8.544000626E0
1.473303786E1,4.693950176E0,4.879500270E-1,-8.524950027E0
1.475303786E1,4.656000137E0,5.070000291E-1,-8.544000626E0
1.477303786E1,4.693950176E0,5.070000291E-1,-8.524950027E0
1.479303786E1,4.656000137E0,4.879500270E-1,-8.544000626E0
1.481303786E1,4.714050293E0,5.260500312E-1,-8.544000626E0
1.483303786E1,4.656000137E0,5.260500312E-1,-8.524950027E0
1.485303786E1,4.732950211E0,4.879500270E-1,-8.544000626E0
1.487303786E1,4.714050293E0,4.690500200E-1,-8.506050110E0
1.489303786E1,4.618050098E0,4.879500270E-1,-8.506050110E0
1.491303786E1,4.656000137E0,4.879500270E-1,-8.506050110E0
1.493303786E1,4.618050098E0,4.690500200E-1,-8.524950027E0
1.495303786E1,4.675050259E0,4.690500200E-1,-8.524950027E0
1.497303786E1,4.618050098E0,5.260500312E-1,-8.544000626E0
1.499303786E1,4.656000137E0,4.879500270E-1,-8.544000626E0
1.501303786E1,4.656000137E0,4.879500270E-1,-8.524950027E0
1.503303786E1,4.656000137E0,5.070000291E-1,-8.563050270E0
1.505303786E1,4.675050259E0,4.879500270E-1,-8.544000626E0
1.507303786E1,4.752000332E0,5.070000291E-1,-8.487000465E0
1.509303786E1,4.693950176E0,5.460000038E-1,-8.524950027E0
1.511303786E1,4.656000137E0,5.070000291E-1,-8.506050110E0
1.513303786E1,4.675050259E0,4.690500200E-1,-8.544000626E0
1.515303786E1,4.636950016E0,4.879500270E-1,-8.487000465E0
1.517303786E1,4.636950016E0,5.070000291E-1,-8.544000626E0
1.519303786E1,4.656000137E0,5.070000291E-1,-8.544000626E0
1.521303786E1,4.675050259E0,5.260500312E-1,-8.467950821E0
1.523303786E1,4.675050259E0,5.070000291E-1,-8.524950027E0
1.525303786E1,4.656000137E0,4.879500270E-1,-8.524950027E0
1.527303786E1,4.675050259E0,4.879500270E-1,-8.524950027E0
1.529303786E1,4.656000137E0,4.690500200E-1,-8.563050270E0
1.531303786E1,4.675050259E0,5.070000291E-1,-8.544000626E0
1.533303786E1,4.675050259E0,5.260500312E-1,-8.524950027E0
1.535303786E1,4.656000137E0,5.070000291E-1,-8.506050110E0
1.537303786E1,4.675050259E0,4.879500270E-1,-8.583000183E0
1.539303786E1,4.693950176E0,4.879500270E-1,-8.524950027E0
1.541303786E1,4.656000137E0,5.070000291E-1,-8.524950027E0
1.543303786E1,4.675050259E0,4.879500270E-1,-8.524950027E0
1.545303786E1,4.636950016E0,4.690500200E-1,-8.506050110E0
1.547303786E1,4.656000137E0,4.879500270E-1,-8.544000626E0
1.549303786E1,4.636950016E0,5.070000291E-1,-8.506050110E0
1.551303786E1,4.656000137E0,5.070000291E-1,-8.487000465E0
1.553303786E1,4.636950016E0,4.879500270E-1,-8.544000626E0
1.555303786E1,4.656000137E0,4.879500270E-1,-8.544000626E0
1.557303786E1,4.618050098E0,4.879500270E-1,-8.506050110E0
1.559303786E1,4.636950016E0,5.460000038E-1,-8.544000626E0
1.561303786E1,4.693950176E0,5.070000291E-1,-8.524950027E0
1.563303786E1,4.675050259E0,4.500000179E-1,-8.506050110E0
1.565303786E1,4.618050098E0,4.690500200E-1,-8.544000626E0
1.567303786E1,4.599000454E0,5.070000291E-1,-8.487000465E0
1.569303786E1,4.618050098E0,4.690500200E-1,-8.544000626E0
1.571303786E1,4.656000137E0,4.500000179E-1,-8.506050110E0
1.573303786E1,4.618050098E0,4.690500200E-1,-8.524950027E0
1.575303786E1,4.656000137E0,4.879500270E-1,-8.487000465E0
1.577303786E1,4.656000137E0,4.690500200E-1,-8.524950027E0
1.579303786E1,4.675050259E0,4.500000179E-1,-8.506050110E0
1.581303786E1,4.675050259E0,4.500000179E-1,-8.506050110E0
1.583303786E1,4.675050259E0,5.260500312E-1,-8.524950027E0
1.585303786E1,4.675050259E0,5.070000291E-1,-8.524950027E0
1.587303786E1,4.599000454E0,5.260500312E-1,-8.524950027E0
1.589303786E1,4.656000137E0,5.460000038E-1,-8.563050270E0
1.591303786E1,4.675050259E0,4.690500200E-1,-8.524950027E0
1.593303786E1,4.693950176E0,5.070000291E-1,-8.544000626E0
1.595303786E1,4.656000137E0,5.070000291E-1,-8.524950027E0
1.597303786E1,4.675050259E0,5.070000291E-1,-8.524950027E0
1.599303786E1,4.636950016E0,5.070000291E-1,-8.563050270E0
1.601303786E1,4.693950176E0,4.879500270E-1,-8.524950027E0
1.603303786E1,4.636950016E0,4.690500200E-1,-8.524950027E0
1.605303786E1,4.675050259E0,4.690500200E-1,-8.524950027E0
1.607303786E1,4.675050259E0,5.070000291E-1,-8.544000626E0
1.609303786E1,4.636950016E0,4.690500200E-1,-8.544000626E0
1.611303786E1,4.656000137E0,5.070000291E-1,-8.544000626E0
1.613303786E1,4.656000137E0,5.070000291E-1,-8.506050110E0
1.615303786E1,4.675050259E0,5.650500059E-1,-8.563050270E0
1.617303786E1,4.618050098E0,5.460000038E-1,-8.563050270E0
1.619303786E1,4.656000137E0,4.879500270E-1,-8.506050110E0
1.621303786E1,4.675050259E0,4.500000179E-1,-8.506050110E0
1.623303786E1,4.636950016E0,4.690500200E-1,-8.524950027E0
1.625303786E1,4.675050259E0,4.500000179E-1,-8.524950027E0
1.627303786E1,4.656000137E0,4.120500088E-1,-8.487000465E0
1.629303786E1,4.618050098E0,4.690500200E-1,-8.544000626E0
1.631303786E1,4.656000137E0,4.879500270E-1,-8.583000183E0
1.633303786E1,4.675050259E0,4.690500200E-1,-8.544000626E0
1.635303786E1,4.656000137E0,4.879500270E-1,-8.524950027E0
1.637303786E1,4.636950016E0,5.460000038E-1,-8.524950027E0
1.639303786E1,4.656000137E0,5.260500312E-1,-8.563050270E0
1.641303786E1,4.675050259E0,5.260500312E-1,-8.524950027E0
1.643303786E1,4.636950016E0,5.070000291E-1,-8.487000465E0
1.645303786E1,4.636950016E0,4.879500270E-1,-8.563050270E0
1.647303786E1,4.656000137E0,4.500000179E-1,-8.506050110E0
1.649303786E1,4.675050259E0,4.500000179E-1,-8.524950027E0
1.651303786E1,4.656000137E0,4.879500270E-1,-8.563050270E0
1.653303786E1,4.656000137E0,4.879500270E-1,-8.563050270E0
1.655303786E1,4.618050098E0,5.070000291E-1,-8.563050270E0
1.657303786E1,4.675050259E0,4.690500200E-1,-8.524950027E0
1.659303786E1,4.693950176E0,5.070000291E-1,-8.524950027E0
1.661303786E1,4.618050098E0,4.879500270E-1,-8.506050110E0
1.663303786E1,4.675050259E0,4.879500270E-1,-8.524950027E0
1.665303786E1,4.693950176E0,4.690500200E-1,-8.563050270E0
1.667303786E1,4.656000137E0,4.879500270E-1,-8.544000626E0
1.669303786E1,4.599000454E0,5.070000291E-1,-8.487000465E0
1.671303786E1,4.618050098E0,5.460000038E-1,-8.524950027E0
1.673303786E1,4.656000137E0,5.070000291E-1,-8.583000183E0
1.675303786E1,4.675050259E0,5.070000291E-1,-8.524950027E0
1.677303786E1,4.675050259E0,5.070000291E-1,-8.487000465E0
1.679303786E1,4.636950016E0,4.690500200E-1,-8.524950027E0
1.681303786E1,4.656000137E0,4.500000179E-1,-8.524950027E0
1.683303786E1,4.636950016E0,4.879500270E-1,-8.544000626E0
1.685303786E1,4.675050259E0,4.500000179E-1,-8.583000183E0
1.687303786E1,4.636950016E0,4.879500270E-1,-8.563050270E0
1.689303786E1,4.656000137E0,5.070000291E-1,-8.487000465E0
1.691303786E1,4.599000454E0,5.070000291E-1,-8.524950027E0
1.693303786E1,4.636950016E0,4.690500200E-1,-8.524950027E0
1.695303786E1,4.636950016E0,4.690500200E-1,-8.487000465E0
1.697303786E1,4.618050098E0,4.879500270E-1,-8.544000626E0
1.699303786E1,4.599000454E0,5.260500312E-1,-8.524950027E0
1.701303786E1,4.675050259E0,4.690500200E-1,-8.544000626E0
1.703303786E1,4.599000454E0,4.690500200E-1,-8.506050110E0
1.705303786E1,4.599000454E0,4.879500270E-1,-8.524950027E0
1.707303786E1,4.693950176E0,5.070000291E-1,-8.583000183E0
1.709303786E1,4.675050259E0,4.879500270E-1,-8.544000626E0
1.711303786E1,4.618050098E0,4.690500200E-1,-8.506050110E0
1.713303786E1,4.656000137E0,5.260500312E-1,-8.563050270E0
1.715303786E1,4.636950016E0,4.879500270E-1,-8.524950027E0
1.717303786E1,4.675050259E0,4.879500270E-1,-8.524950027E0
1.719303786E1,4.618050098E0,4.690500200E-1,-8.506050110E0
1.721303786E1,4.599000454E0,4.500000179E-1,-8.563050270E0
1.723303786E1,4.656000137E0,4.500000179E-1,-8.524950027E0
1.725303786E1,4.618050098E0,4.500000179E-1,-8.524950027E0
1.727303786E1,4.636950016E0,4.500000179E-1,-8.524950027E0
1.729303786E1,4.618050098E0,5.070000291E-1,-8.563050270E0
1.731303786E1,4.636950016E0,5.070000291E-1,-8.544000626E0
1.733303786E1,4.693950176E0,4.879500270E-1,-8.467950821E0
1.735303786E1,4.714050293E0,4.879500270E-1,-8.506050110E0
1.737303786E1,4.675050259E0,4.879500270E-1,-8.524950027E0
1.739303786E1,4.618050098E0,5.070000291E-1,-8.524950027E0
1.741303786E1,4.636950016E0,4.879500270E-1,-8.524950027E0
1.743303786E1,4.636950016E0,4.879500270E-1,-8.563050270E0
1.745303786E1,4.656000137E0,4.879500270E-1,-8.524950027E0
1.747303786E1,4.675050259E0,5.070000291E-1,-8.524950027E0
1.749303786E1,4.636950016E0,4.879500270E-1,-8.487000465E0
1.751303786E1,4.693950176E0,4.690500200E-1,-8.583000183E0
1.753303786E1,4.656000137E0,4.690500200E-1,-8.506050110E0
1.755303786E1,4.636950016E0,4.879500270E-1,-8.544000626E0
1.757303786E1,4.636950016E0,5.070000291E-1,-8.544000626E0
1.759303786E1,4.636950016E0,4.690500200E-1,-8.524950027E0
1.761303786E1,4.599000454E0,4.879500270E-1,-8.524950027E0
1.763303786E1,4.656000137E0,4.690500200E-1,-8.544000626E0
1.765303786E1,4.656000137E0,4.879500270E-1,-8.563050270E0
1.767303786E1,4.636950016E0,4.690500200E-1,-8.583000183E0
1.769303786E1,4.656000137E0,4.879500270E-1,-8.524950027E0
1.771303786E1,4.636950016E0,4.690500200E-1,-8.524950027E0
1.773303786E1,4.656000137E0,4.309500158E-1,-8.487000465E0
1.775303786E1,4.618050098E0,4.690500200E-1,-8.524950027E0
1.777303786E1,4.618050098E0,4.690500200E-1,-8.524950027E0
1.779303786E1,4.636950016E0,5.260500312E-1,-8.563050270E0
1.781303786E1,4.732950211E0,4.309500158E-1,-8.544000626E0
1.783303786E1,4.693950176E0,5.070000291E-1,-8.487000465E0
1.785303786E1,4.656000137E0,5.070000291E-1,-8.524950027E0
1.787303786E1,4.675050259E0,4.690500200E-1,-8.544000626E0
1.789303786E1,4.675050259E0,4.690500200E-1,-8.524950027E0
1.791303786E1,4.618050098E0,4.500000179E-1,-8.524950027E0
1.793303786E1,4.618050098E0,4.500000179E-1,-8.487000465E0
1.795303786E1,4.618050098E0,4.690500200E-1,-8.563050270E0
1.797303786E1,4.636950016E0,4.500000179E-1,-8.506050110E0
1.799303786E1,4.675050259E0,4.879500270E-1,-8.524950027E0
1.801303786E1,4.636950016E0,4.879500270E-1,-8.544000626E0
1.803303786E1,4.636950016E0,4.690500200E-1,-8.544000626E0
1.805303786E1,4.675050259E0,4.500000179E-1,-8.544000626E0
1.807303786E1,4.675050259E0,4.690500200E-1,-8.524950027E0
1.809303786E1,4.656000137E0,4.690500200E-1,-8.467950821E0
1.811303786E1,4.636950016E0,4.690500200E-1,-8.524950027E0
1.813303786E1,4.618050098E0,4.500000179E-1,-8.524950027E0
1.815303786E1,4.618050098E0,4.500000179E-1,-8.544000626E0
1.817303786E1,4.636950016E0,4.879500270E-1,-8.563050270E0
1.819303786E1,4.636950016E0,4.690500200E-1,-8.524950027E0
1.821303786E1,4.675050259E0,4.690500200E-1,-8.524950027E0
1.823303786E1,4.636950016E0,4.879500270E-1,-8.544000626E0
1.825303786E1,4.636950016E0,5.070000291E-1,-8.583000183E0
1.827303786E1,4.636950016E0,4.690500200E-1,-8.544000626E0
1.829303786E1,4.618050098E0,4.500000179E-1,-8.563050270E0
1.831303786E1,4.599000454E0,5.260500312E-1,-8.544000626E0
1.833303786E1,4.636950016E0,4.690500200E-1,-8.506050110E0
1.835303786E1,4.656000137E0,5.070000291E-1,-8.524950027E0
1.837303786E1,4.636950016E0,4.879500270E-1,-8.563050270E0
1.839303786E1,4.618050098E0,4.690500200E-1,-8.583000183E0
1.841303786E1,4.675050259E0,5.070000291E-1,-8.563050270E0
1.843303786E1,4.618050098E0,4.690500200E-1,-8.563050270E0
1.845303786E1,4.618050098E0,4.879500270E-1,-8.524950027E0
1.847303786E1,4.636950016E0,5.260500312E-1,-8.544000626E0
1.849303786E1,4.636950016E0,5.260500312E-1,-8.506050110E0
1.851303786E1,4.579950333E0,4.500000179E-1,-8.524950027E0
1.853303786E1,4.636950016E0,4.879500270E-1,-8.544000626E0
1.855303786E1,4.656000137E0,4.879500270E-1,-8.524950027E0
1.857303786E1,4.618050098E0,5.070000291E-1,-8.563050270E0
1.859303786E1,4.618050098E0,5.260500312E-1,-8.544000626E0
1.861303786E1,4.618050098E0,5.260500312E-1,-8.544000626E0
1.863303786E1,4.693950176E0,4.879500270E-1,-8.524950027E0
1.865303786E1,4.656000137E0,5.070000291E-1,-8.563050270E0
1.867303786E1,4.618050098E0,4.879500270E-1,-8.544000626E0
1.869303786E1,4.579950333E0,4.690500200E-1,-8.524950027E0
1.871303786E1,4.579950333E0,5.070000291E-1,-8.544000626E0
1.873303786E1,4.618050098E0,4.690500200E-1,-8.524950027E0
1.875303786E1,4.599000454E0,4.879500270E-1,-8.544000626E0
1.877303786E1,4.560000420E0,4.879500270E-1,-8.544000626E0
1.879303786E1,4.618050098E0,5.070000291E-1,-8.524950027E0
1.881303786E1,4.636950016E0,5.070000291E-1,-8.563050270E0
1.883303786E1,4.636950016E0,5.070000291E-1,-8.563050270E0
1.885303786E1,4.636950016E0,5.070000291E-1,-8.544000626E0
1.887303786E1,4.618050098E0,4.879500270E-1,-8.563050270E0
1.889303786E1,4.618050098E0,4.879500270E-1,-8.583000183E0
1.891303786E1,4.540950298E0,4.690500200E-1,-8.544000626E0
1.893303786E1,4.636950016E0,4.690500200E-1,-8.583000183E0
1.895303786E1,4.618050098E0,4.690500200E-1,-8.524950027E0
1.897303786E1,4.636950016E0,4.879500270E-1,-8.524950027E0
1.899303786E1,4.656000137E0,5.070000291E-1,-8.583000183E0
1.901303786E1,4.599000454E0,4.879500270E-1,-8.563050270E0
1.903303786E1,4.636950016E0,5.260500312E-1,-8.544000626E0
1.905303786E1,4.599000454E0,5.260500312E-1,-8.524950027E0
1.907303786E1,4.599000454E0,4.690500200E-1,-8.544000626E0
1.909303786E1,4.599000454E0,4.690500200E-1,-8.583000183E0
1.911303786E1,4.618050098E0,4.690500200E-1,-8.563050270E0
1.913303786E1,4.636950016E0,4.879500270E-1,-8.524950027E0
1.915303786E1,4.636950016E0,5.070000291E-1,-8.544000626E0
1.917303786E1,4.618050098E0,5.070000291E-1,-8.524950027E0
1.919303786E1,4.636950016E0,4.879500270E-1,-8.544000626E0
1.921303786E1,4.618050098E0,4.690500200E-1,-8.506050110E0
1.923303786E1,4.618050098E0,4.690500200E-1,-8.506050110E0
1.925303786E1,4.636950016E0,4.690500200E-1,-8.583000183E0
1.927303786E1,4.599000454E0,4.690500200E-1,-8.524950027E0
1.929303786E1,4.579950333E0,4.690500200E-1,-8.563050270E0
1.931303786E1,4.618050098E0,4.690500200E-1,-8.524950027E0
1.933303786E1,4.579950333E0,5.260500312E-1,-8.544000626E0
1.935303786E1,4.618050098E0,5.839500427E-1,-8.563050270E0
1.937303786E1,4.618050098E0,5.260500312E-1,-8.583000183E0
1.939303786E1,4.675050259E0,5.070000291E-1,-8.583000183E0
1.941303786E1,4.560000420E0,5.070000291E-1,-8.563050270E0
1.943303786E1,4.560000420E0,4.309500158E-1,-8.524950027E0
1.945303786E1,4.579950333E0,4.500000179E-1,-8.583000183E0
1.947303786E1,4.599000454E0,4.690500200E-1,-8.583000183E0
1.949303786E1,4.579950333E0,4.879500270E-1,-8.563050270E0
1.951303786E1,4.618050098E0,4.690500200E-1,-8.524950027E0
1.953303786E1,4.618050098E0,5.070000291E-1,-8.544000626E0
1.955303786E1,4.656000137E0,5.070000291E-1,-8.544000626E0
1.957303786E1,4.618050098E0,5.070000291E-1,-8.524950027E0
1.959303786E1,4.675050259E0,4.500000179E-1,-8.524950027E0
1.961303786E1,4.599000454E0,4.879500270E-1,-8.524950027E0
1.963303786E1,4.599000454E0,4.879500270E-1,-8.544000626E0
1.965303786E1,4.618050098E0,5.460000038E-1,-8.583000183E0
1.967303786E1,4.618050098E0,5.070000291E-1,-8.563050270E0
1.969303786E1,4.636950016E0,4.879500270E-1,-8.544000626E0
1.971303786E1,4.656000137E0,5.070000291E-1,-8.524950027E0
1.973303786E1,4.618050098E0,5.070000291E-1,-8.563050270E0
1.975303786E1,4.618050098E0,5.070000291E-1,-8.563050270E0
1.977303786E1,4.599000454E0,5.070000291E-1,-8.506050110E0
1.979303786E1,4.599000454E0,4.879500270E-1,-8.563050270E0
1.981303786E1,4.599000454E0,4.690500200E-1,-8.563050270E0
1.983303786E1,4.618050098E0,4.690500200E-1,-8.563050270E0
1.985303786E1,4.560000420E0,4.690500200E-1,-8.583000183E0
1.987303786E1,4.618050098E0,4.690500200E-1,-8.563050270E0
1.989303786E1,4.636950016E0,4.879500270E-1,-8.524950027E0
1.991303786E1,4.618050098E0,4.690500200E-1,-8.544000626E0
1.993303786E1,4.560000420E0,5.650500059E-1,-8.583000183E0
1.995303786E1,4.579950333E0,5.070000291E-1,-8.544000626E0
1.997303786E1,4.599000454E0,5.070000291E-1,-8.563050270E0
1.999303786E1,4.599000454E0,4.879500270E-1,-8.563050270E0
2.001303786E1,4.599000454E0,4.309500158E-1,-8.544000626E0
2.003303786E1,4.618050098E0,4.879500270E-1,-8.524950027E0
2.005303786E1,4.618050098E0,4.879500270E-1,-8.524950027E0
2.007303786E1,4.656000137E0,4.879500270E-1,-8.544000626E0
2.009303786E1,4.675050259E0,5.070000291E-1,-8.563050270E0
2.011303786E1,4.599000454E0,5.260500312E-1,-8.563050270E0
2.013303786E1,4.636950016E0,4.879500270E-1,-8.544000626E0
2.015303786E1,4.618050098E0,4.879500270E-1,-8.583000183E0
2.017303786E1,4.599000454E0,4.690500200E-1,-8.563050270E0
2.019303786E1,4.579950333E0,4.690500200E-1,-8.524950027E0
2.021303786E1,4.560000420E0,5.070000291E-1,-8.544000626E0
2.023303786E1,4.599000454E0,4.879500270E-1,-8.487000465E0
2.025303786E1,4.579950333E0,4.879500270E-1,-8.524950027E0
2.027303786E1,4.599000454E0,5.070000291E-1,-8.524950027E0
2.029303786E1,4.656000137E0,5.070000291E-1,-8.563050270E0
2.031303786E1,4.656000137E0,4.879500270E-1,-8.544000626E0
2.033303786E1,4.599000454E0,5.070000291E-1,-8.524950027E0
2.035303786E1,4.618050098E0,5.070000291E-1,-8.563050270E0
2.037303786E1,4.599000454E0,4.879500270E-1,-8.583000183E0
2.039303786E1,4.599000454E0,5.070000291E-1,-8.544000626E0
2.041303786E1,4.636950016E0,4.879500270E-1,-8.563050270E0
2.043303786E1,4.579950333E0,5.260500312E-1,-8.563050270E0
2.045303786E1,4.599000454E0,5.070000291E-1,-8.544000626E0
2.047303786E1,4.599000454E0,4.500000179E-1,-8.563050270E0
2.049303786E1,4.636950016E0,5.070000291E-1,-8.524950027E0
2.051303786E1,4.599000454E0,4.879500270E-1,-8.583000183E0
2.053303786E1,4.618050098E0,4.879500270E-1,-8.544000626E0
2.055303786E1,4.656000137E0,5.070000291E-1,-8.524950027E0
2.057303786E1,4.636950016E0,5.070000291E-1,-8.524950027E0
2.059303786E1,4.599000454E0,5.070000291E-1,-8.583000183E0
2.061303786E1,4.618050098E0,4.879500270E-1,-8.563050270E0
2.063303786E1,4.636950016E0,5.070000291E-1,-8.563050270E0
2.065303786E1,4.618050098E0,4.879500270E-1,-8.602050781E0
2.067303786E1,4.599000454E0,4.879500270E-1,-8.524950027E0
2.069303786E1,4.675050259E0,5.070000291E-1,-8.524950027E0
2.071303786E1,4.618050098E0,4.879500270E-1,-8.544000626E0
2.073303786E1,4.675050259E0,5.070000291E-1,-8.506050110E0
2.075303786E1,4.656000137E0,4.879500270E-1,-8.524950027E0
2.077303786E1,4.599000454E0,5.260500312E-1,-8.583000183E0
2.079303786E1,4.618050098E0,4.879500270E-1,-8.620950699E0
2.081303786E1,4.599000454E0,4.690500200E-1,-8.544000626E0
2.083303786E1,4.599000454E0,4.879500270E-1,-8.602050781E0
2.085303786E1,4.618050098E0,4.500000179E-1,-8.524950027E0
2.087303786E1,4.599000454E0,4.690500200E-1,-8.563050270E0
2.089303786E1,4.599000454E0,4.879500270E-1,-8.544000626E0
2.091303786E1,4.579950333E0,5.260500312E-1,-8.524950027E0
2.093303786E1,4.636950016E0,5.260500312E-1,-8.544000626E0
2.095303786E1,4.656000137E0,4.879500270E-1,-8.544000626E0
2.097303786E1,4.618050098E0,4.690500200E-1,-8.544000626E0
2.099303786E1,4.618050098E0,4.690500200E-1,-8.506050110E0
2.101303786E1,4.599000454E0,4.309500158E-1,-8.524950027E0
2.103303786E1,4.618050098E0,4.879500270E-1,-8.544000626E0
2.105303786E1,4.618050098E0,5.260500312E-1,-8.487000465E0
2.107303786E1,4.618050098E0,5.070000291E-1,-8.524950027E0
2.109303786E1,4.656000137E0,4.500000179E-1,-8.506050110E0
2.111303786E1,4.636950016E0,4.879500270E-1,-8.506050110E0
2.113303786E1,4.675050259E0,5.070000291E-1,-8.524950027E0
2.115303786E1,4.618050098E0,5.070000291E-1,-8.524950027E0
2.117303786E1,4.618050098E0,5.260500312E-1,-8.506050110E0
2.119303786E1,4.579950333E0,4.879500270E-1,-8.544000626E0
2.121303786E1,4.579950333E0,4.690500200E-1,-8.563050270E0
2.123303786E1,4.599000454E0,4.690500200E-1,-8.583000183E0
2.125303786E1,4.618050098E0,4.879500270E-1,-8.583000183E0
2.127303786E1,4.636950016E0,5.070000291E-1,-8.544000626E0
2.129303786E1,4.618050098E0,5.070000291E-1,-8.524950027E0
2.131303786E1,4.618050098E0,4.690500200E-1,-8.524950027E0
2.133303786E1,4.656000137E0,4.879500270E-1,-8.544000626E0
2.135303786E1,4.675050259E0,4.690500200E-1,-8.524950027E0
2.137303786E1,4.579950333E0,5.460000038E-1,-8.524950027E0
2.139303786E1,4.656000137E0,5.070000291E-1,-8.506050110E0
2.141303786E1,4.656000137E0,4.690500200E-1,-8.487000465E0
2.143303786E1,4.618050098E0,5.070000291E-1,-8.563050270E0
2.145303786E1,4.618050098E0,5.070000291E-1,-8.524950027E0
2.147303786E1,4.618050098E0,4.690500200E-1,-8.602050781E0
2.149303786E1,4.618050098E0,5.260500312E-1,-8.563050270E0
2.151303786E1,4.599000454E0,4.879500270E-1,-8.583000183E0
2.153303786E1,4.675050259E0,4.879500270E-1,-8.544000626E0
2.155303786E1,4.636950016E0,4.690500200E-1,-8.544000626E0
2.157303786E1,4.599000454E0,4.879500270E-1,-8.563050270E0
2.159303786E1,4.618050098E0,4.879500270E-1,-8.544000626E0
2.161303786E1,4.636950016E0,4.879500270E-1,-8.583000183E0
2.163303786E1,4.636950016E0,5.260500312E-1,-8.544000626E0
2.165303786E1,4.636950016E0,5.260500312E-1,-8.620950699E0
2.167303786E1,4.656000137E0,4.690500200E-1,-8.563050270E0
2.169303786E1,4.636950016E0,4.500000179E-1,-8.506050110E0
2.171303786E1,4.579950333E0,4.690500200E-1,-8.544000626E0
2.173303786E1,4.579950333E0,4.500000179E-1,-8.544000626E0
2.175303786E1,4.579950333E0,4.500000179E-1,-8.524950027E0
2.177303786E1,4.618050098E0,4.500000179E-1,-8.563050270E0
2.179303786E1,4.636950016E0,4.500000179E-1,-8.583000183E0
2.181303786E1,4.599000454E0,4.690500200E-1,-8.583000183E0
2.183303786E1,4.599000454E0,5.460000038E-1,-8.563050270E0
2.185303786E1,4.675050259E0,4.879500270E-1,-8.544000626E0
2.187303786E1,4.636950016E0,4.879500270E-1,-8.487000465E0
2.189303786E1,4.636950016E0,5.260500312E-1,-8.544000626E0
2.191303786E1,4.599000454E0,5.070000291E-1,-8.544000626E0
2.193303786E1,4.579950333E0,4.879500270E-1,-8.563050270E0
2.195303786E1,4.618050098E0,4.879500270E-1,-8.506050110E0
2.197303786E1,4.560000420E0,5.070000291E-1,-8.544000626E0
2.199303786E1,4.636950016E0,4.879500270E-1,-8.544000626E0
2.201303786E1,4.618050098E0,5.070000291E-1,-8.524950027E0
2.203303786E1,4.618050098E0,4.500000179E-1,-8.524950027E0
2.205303786E1,4.618050098E0,4.500000179E-1,-8.524950027E0
2.207303786E1,4.579950333E0,4.690500200E-1,-8.563050270E0
2.209303786E1,4.618050098E0,4.879500270E-1,-8.544000626E0
2.211303786E1,4.579950333E0,4.879500270E-1,-8.524950027E0
2.213303786E1,4.636950016E0,4.879500270E-1,-8.563050270E0
2.215303786E1,4.599000454E0,4.690500200E-1,-8.563050270E0
2.217303786E1,4.656000137E0,5.260500312E-1,-8.563050270E0
2.219303786E1,4.618050098E0,4.879500270E-1,-8.563050270E0
2.221303786E1,4.599000454E0,4.690500200E-1,-8.524950027E0
2.223303786E1,4.579950333E0,5.070000291E-1,-8.563050270E0
2.225303786E1,4.540950298E0,4.879500270E-1,-8.563050270E0
2.227303786E1,4.618050098E0,5.260500312E-1,-8.563050270E0
2.229303786E1,4.656000137E0,5.460000038E-1,-8.620950699E0
2.231303786E1,4.636950016E0,4.690500200E-1,-8.544000626E0
2.233303786E1,4.599000454E0,5.070000291E-1,-8.487000465E0
2.235303786E1,4.636950016E0,4.879500270E-1,-8.544000626E0
2.237303786E1,4.636950016E0,4.690500200E-1,-8.563050270E0
2.239303786E1,4.579950333E0,4.500000179E-1,-8.506050110E0
2.241303786E1,4.599000454E0,5.070000291E-1,-8.544000626E0
2.243303786E1,4.579950333E0,5.070000291E-1,-8.544000626E0
2.245303786E1,4.636950016E0,4.879500270E-1,-8.583000183E0
2.247303786E1,4.540950298E0,4.690500200E-1,-8.506050110E0
2.249303786E1,4.618050098E0,4.690500200E-1,-8.544000626E0
2.251303786E1,4.618050098E0,4.879500270E-1,-8.524950027E0
2.253303786E1,4.599000454E0,4.309500158E-1,-8.506050110E0
2.255303786E1,4.618050098E0,4.879500270E-1,-8.563050270E0
2.257303786E1,4.618050098E0,5.070000291E-1,-8.583000183E0
2.259303786E1,4.636950016E0,4.690500200E-1,-8.544000626E0
2.261303786E1,4.618050098E0,5.260500312E-1,-8.506050110E0
2.263303786E1,4.618050098E0,4.879500270E-1,-8.524950027E0
2.265303786E1,4.636950016E0,5.070000291E-1,-8.544000626E0
2.267303786E1,4.599000454E0,5.070000291E-1,-8.563050270E0
2.269303786E1,4.560000420E0,5.260500312E-1,-8.544000626E0
2.271303786E1,4.599000454E0,5.070000291E-1,-8.563050270E0
2.273303786E1,4.579950333E0,5.070000291E-1,-8.524950027E0
2.275303786E1,4.599000454E0,5.260500312E-1,-8.524950027E0
2.277303786E1,4.636950016E0,4.690500200E-1,-8.563050270E0
2.279303786E1,4.618050098E0,4.879500270E-1,-8.544000626E0
2.281303786E1,4.599000454E0,5.260500312E-1,-8.563050270E0
2.283303786E1,4.599000454E0,4.690500200E-1,-8.544000626E0
2.285303786E1,4.618050098E0,5.260500312E-1,-8.524950027E0
2.287303786E1,4.579950333E0,5.070000291E-1,-8.563050270E0
2.289303786E1,4.560000420E0,4.879500270E-1,-8.563050270E0
2.291303786E1,4.599000454E0,4.690500200E-1,-8.544000626E0
2.293303786E1,4.599000454E0,5.460000038E-1,-8.506050110E0
2.295303786E1,4.599000454E0,5.460000038E-1,-8.524950027E0
2.297303786E1,4.618050098E0,4.879500270E-1,-8.583000183E0
2.299303786E1,4.636950016E0,5.070000291E-1,-8.506050110E0
2.301303786E1,4.599000454E0,5.070000291E-1,-8.583000183E0
2.303303786E1,4.618050098E0,4.879500270E-1,-8.524950027E0
2.305303786E1,4.618050098E0,5.070000291E-1,-8.524950027E0
2.307303786E1,4.599000454E0,4.879500270E-1,-8.544000626E0
2.309303786E1,4.636950016E0,5.070000291E-1,-8.563050270E0
2.311303786E1,4.579950333E0,4.690500200E-1,-8.524950027E0
2.313303786E1,4.579950333E0,4.879500270E-1,-8.524950027E0
2.315303786E1,4.618050098E0,5.070000291E-1,-8.620950699E0
2.317303786E1,4.636950016E0,4.879500270E-1,-8.563050270E0
2.319303786E1,4.560000420E0,5.460000038E-1,-8.620950699E0
2.321303786E1,4.636950016E0,5.260500312E-1,-8.583000183E0
2.323303786E1,4.599000454E0,4.879500270E-1,-8.563050270E0
2.325303786E1,4.579950333E0,4.879500270E-1,-8.544000626E0
2.327303786E1,4.540950298E0,5.070000291E-1,-8.524950027E0
2.329303786E1,4.579950333E0,4.690500200E-1,-8.544000626E0
2.331303786E1,4.599000454E0,4.500000179E-1,-8.544000626E0
2.333303786E1,4.618050098E0,5.070000291E-1,-8.544000626E0
2.335303786E1,4.560000420E0,4.879500270E-1,-8.583000183E0
2.337303786E1,4.599000454E0,5.070000291E-1,-8.506050110E0
2.339303786E1,4.618050098E0,4.690500200E-1,-8.506050110E0
2.341303786E1,4.599000454E0,5.070000291E-1,-8.563050270E0
2.343303786E1,4.579950333E0,5.460000038E-1,-8.544000626E0
2.345303786E1,4.579950333E0,5.070000291E-1,-8.544000626E0
2.347303786E1,4.599000454E0,4.690500200E-1,-8.563050270E0
2.349303786E1,4.599000454E0,5.260500312E-1,-8.563050270E0
2.351303786E1,4.599000454E0,5.070000291E-1,-8.602050781E0
2.353303786E1,4.618050098E0,5.070000291E-1,-8.524950027E0
2.355303786E1,4.599000454E0,5.260500312E-1,-8.563050270E0
2.357303786E1,4.636950016E0,4.879500270E-1,-8.583000183E0
2.359303786E1,4.579950333E0,5.260500312E-1,-8.544000626E0
2.361303786E1,4.599000454E0,5.070000291E-1,-8.563050270E0
2.363303786E1,4.560000420E0,5.070000291E-1,-8.563050270E0
2.365303786E1,4.579950333E0,4.690500200E-1,-8.563050270E0
2.367303786E1,4.579950333E0,5.260500312E-1,-8.524950027E0
2.369303786E1,4.560000420E0,4.690500200E-1,-8.563050270E0
2.371303786E1,4.636950016E0,5.070000291E-1,-8.563050270E0
2.373303786E1,4.599000454E0,4.879500270E-1,-8.583000183E0
2.375303786E1,4.599000454E0,5.070000291E-1,-8.583000183E0
2.377303786E1,4.560000420E0,4.500000179E-1,-8.563050270E0
2.379303786E1,4.618050098E0,5.260500312E-1,-8.544000626E0
2.381303786E1,4.599000454E0,4.690500200E-1,-8.563050270E0
2.383303786E1,4.618050098E0,4.879500270E-1,-8.563050270E0
2.385303786E1,4.579950333E0,5.070000291E-1,-8.563050270E0
2.387303786E1,4.599000454E0,5.070000291E-1,-8.563050270E0
2.389303786E1,4.599000454E0,4.879500270E-1,-8.583000183E0
2.391303786E1,4.599000454E0,4.690500200E-1,-8.583000183E0
2.393303786E1,4.618050098E0,5.070000291E-1,-8.524950027E0
2.395303786E1,4.618050098E0,5.260500312E-1,-8.524950027E0
2.397303786E1,4.618050098E0,5.460000038E-1,-8.563050270E0
2.399303786E1,4.599000454E0,5.070000291E-1,-8.544000626E0
2.401303786E1,4.618050098E0,4.690500200E-1,-8.563050270E0
2.403303786E1,4.560000420E0,4.879500270E-1,-8.563050270E0
2.405303786E1,4.599000454E0,4.879500270E-1,-8.563050270E0
2.407303786E1,4.599000454E0,4.879500270E-1,-8.524950027E0
2.409303786E1,4.599000454E0,4.879500270E-1,-8.563050270E0
2.411303786E1,4.560000420E0,4.690500200E-1,-8.583000183E0
2.413303786E1,4.599000454E0,4.879500270E-1,-8.602050781E0
2.415303786E1,4.636950016E0,4.690500200E-1,-8.524950027E0
2.417303786E1,4.579950333E0,5.650500059E-1,-8.583000183E0
2.419303786E1,4.618050098E0,5.260500312E-1,-8.524950027E0
2.421303786E1,4.579950333E0,5.070000291E-1,-8.524950027E0
2.423303786E1,4.599000454E0,5.070000291E-1,-8.583000183E0
2.425303786E1,4.579950333E0,4.879500270E-1,-8.583000183E0
2.427303786E1,4.560000420E0,5.260500312E-1,-8.544000626E0
2.429303786E1,4.618050098E0,5.260500312E-1,-8.563050270E0
2.431303786E1,4.579950333E0,5.460000038E-1,-8.563050270E0
2.433303786E1,4.618050098E0,4.879500270E-1,-8.544000626E0
2.435303786E1,4.636950016E0,5.260500312E-1,-8.524950027E0
2.437303786E1,4.599000454E0,4.879500270E-1,-8.563050270E0
2.439303786E1,4.636950016E0,4.500000179E-1,-8.563050270E0
2.441303786E1,4.540950298E0,5.260500312E-1,-8.506050110E0
2.443303786E1,4.579950333E0,5.460000038E-1,-8.563050270E0
2.445303786E1,4.618050098E0,4.690500200E-1,-8.563050270E0
2.447303786E1,4.656000137E0,5.260500312E-1,-8.524950027E0
2.449303786E1,4.579950333E0,5.260500312E-1,-8.563050270E0
2.451303786E1,4.579950333E0,5.070000291E-1,-8.544000626E0
2.453303786E1,4.599000454E0,5.070000291E-1,-8.544000626E0
2.455303786E1,4.636950016E0,4.879500270E-1,-8.544000626E0
2.457303786E1,4.618050098E0,4.690500200E-1,-8.544000626E0
2.459303786E1,4.618050098E0,4.690500200E-1,-8.563050270E0
2.461303786E1,4.579950333E0,4.690500200E-1,-8.524950027E0
2.463303786E1,4.656000137E0,5.070000291E-1,-8.544000626E0
2.465303786E1,4.599000454E0,5.070000291E-1,-8.563050270E0
2.467303786E1,4.560000420E0,5.260500312E-1,-8.544000626E0
2.469303786E1,4.599000454E0,5.070000291E-1,-8.544000626E0
2.471303786E1,4.636950016E0,4.500000179E-1,-8.544000626E0
2.473303786E1,4.618050098E0,4.879500270E-1,-8.544000626E0
2.475303786E1,4.579950333E0,5.839500427E-1,-8.583000183E0
2.477303786E1,4.599000454E0,5.460000038E-1,-8.544000626E0
2.479303786E1,4.636950016E0,4.879500270E-1,-8.506050110E0
2.481303786E1,4.618050098E0,5.070000291E-1,-8.506050110E0
2.483303786E1,4.579950333E0,5.070000291E-1,-8.524950027E0
2.485303786E1,4.560000420E0,4.500000179E-1,-8.544000626E0
2.487303786E1,4.599000454E0,4.879500270E-1,-8.563050270E0
2.489303786E1,4.618050098E0,5.070000291E-1,-8.544000626E0
2.491303786E1,4.618050098E0,5.070000291E-1,-8.602050781E0
2.493303786E1,4.636950016E0,5.070000291E-1,-8.524950027E0
2.495303786E1,4.618050098E0,5.260500312E-1,-8.544000626E0
2.497303786E1,4.618050098E0,5.070000291E-1,-8.544000626E0
2.499303786E1,4.656000137E0,5.070000291E-1,-8.524950027E0
2.501303786E1,4.618050098E0,4.879500270E-1,-8.524950027E0
2.503303786E1,4.579950333E0,4.500000179E-1,-8.544000626E0
2.505303786E1,4.618050098E0,4.879500270E-1,-8.563050270E0
2.507303786E1,4.579950333E0,4.879500270E-1,-8.583000183E0
2.509303786E1,4.618050098E0,4.690500200E-1,-8.563050270E0
2.511303786E1,4.636950016E0,5.260500312E-1,-8.563050270E0
2.513303786E1,4.599000454E0,4.500000179E-1,-8.563050270E0
2.515303786E1,4.618050098E0,4.690500200E-1,-8.544000626E0
2.517303786E1,4.618050098E0,4.879500270E-1,-8.544000626E0
2.519303786E1,4.579950333E0,5.260500312E-1,-8.506050110E0
2.521303786E1,4.579950333E0,4.879500270E-1,-8.583000183E0
2.523303786E1,4.560000420E0,5.070000291E-1,-8.563050270E0
2.525303786E1,4.618050098E0,5.260500312E-1,-8.544000626E0
2.527303786E1,4.618050098E0,4.500000179E-1,-8.563050270E0
2.529303786E1,4.636950016E0,4.690500200E-1,-8.506050110E0
2.531303786E1,4.636950016E0,5.070000291E-1,-8.544000626E0
2.533303786E1,4.599000454E0,4.690500200E-1,-8.563050270E0
2.535303786E1,4.618050098E0,4.690500200E-1,-8.544000626E0
2.537303786E1,4.675050259E0,5.070000291E-1,-8.563050270E0
2.539303786E1,4.618050098E0,4.879500270E-1,-8.563050270E0
2.541303786E1,4.599000454E0,4.879500270E-1,-8.544000626E0
2.543303786E1,4.560000420E0,4.500000179E-1,-8.524950027E0
2.545303786E1,4.503000259E0,4.690500200E-1,-8.524950027E0
2.547303786E1,4.618050098E0,4.690500200E-1,-8.544000626E0
2.549303786E1,4.636950016E0,5.460000038E-1,-8.544000626E0
2.551303786E1,4.618050098E0,5.260500312E-1,-8.563050270E0
2.553303786E1,4.636950016E0,5.070000291E-1,-8.602050781E0
2.555303786E1,4.618050098E0,4.690500200E-1,-8.544000626E0
2.557303786E1,4.560000420E0,4.690500200E-1,-8.563050270E0
2.559303786E1,4.579950333E0,4.690500200E-1,-8.563050270E0
2.561303786E1,4.560000420E0,4.690500200E-1,-8.544000626E0
2.563303786E1,4.579950333E0,4.500000179E-1,-8.544000626E0
2.565303786E1,4.599000454E0,5.070000291E-1,-8.563050270E0
2.567303786E1,4.636950016E0,5.070000291E-1,-8.524950027E0
2.569303786E1,4.618050098E0,5.070000291E-1,-8.563050270E0
2.571303786E1,4.636950016E0,4.879500270E-1,-8.524950027E0
2.573303786E1,4.579950333E0,4.879500270E-1,-8.544000626E0
2.575303786E1,4.579950333E0,4.690500200E-1,-8.583000183E0
2.577303786E1,4.618050098E0,5.260500312E-1,-8.544000626E0
2.579303786E1,4.599000454E0,5.070000291E-1,-8.544000626E0
2.581303786E1,4.599000454E0,5.070000291E-1,-8.583000183E0
2.583303786E1,4.618050098E0,5.260500312E-1,-8.544000626E0
2.585303786E1,4.636950016E0,5.070000291E-1,-8.563050270E0
2.587303786E1,4.636950016E0,5.070000291E-1,-8.524950027E0
2.589303786E1,4.656000137E0,5.070000291E-1,-8.563050270E0
2.591303786E1,4.636950016E0,5.070000291E-1,-8.544000626E0
2.593303786E1,4.618050098E0,5.070000291E-1,-8.544000626E0
2.595303786E1,4.636950016E0,5.260500312E-1,-8.544000626E0
2.597303786E1,4.618050098E0,4.690500200E-1,-8.544000626E0
2.599303786E1,4.579950333E0,5.070000291E-1,-8.524950027E0
2.601303786E1,4.618050098E0,5.260500312E-1,-8.544000626E0
2.603303786E1,4.599000454E0,5.260500312E-1,-8.583000183E0
2.605303786E1,4.599000454E0,4.690500200E-1,-8.544000626E0
2.607303786E1,4.599000454E0,4.879500270E-1,-8.563050270E0
2.609303786E1,4.636950016E0,5.070000291E-1,-8.563050270E0
2.611303786E1,4.618050098E0,4.690500200E-1,-8.544000626E0
2.613303786E1,4.656000137E0,4.879500270E-1,-8.544000626E0
2.615303786E1,4.618050098E0,5.070000291E-1,-8.544000626E0
2.617303786E1,4.636950016E0,5.260500312E-1,-8.602050781E0
2.619303786E1,4.618050098E0,4.690500200E-1,-8.563050270E0
2.621303786E1,4.579950333E0,4.500000179E-1,-8.544000626E0
2.623303786E1,4.560000420E0,5.070000291E-1,-8.563050270E0
2.625303786E1,4.599000454E0,4.879500270E-1,-8.602050781E0
2.627303786E1,4.579950333E0,5.070000291E-1,-8.524950027E0
2.629303786E1,4.599000454E0,5.460000038E-1,-8.524950027E0
2.631303786E1,4.618050098E0,5.460000038E-1,-8.544000626E0
2.633303786E1,4.618050098E0,5.260500312E-1,-8.544000626E0
2.635303786E1,4.599000454E0,5.070000291E-1,-8.524950027E0
2.637303786E1,4.618050098E0,5.070000291E-1,-8.563050270E0
2.639303786E1,4.560000420E0,4.500000179E-1,-8.544000626E0
2.641303786E1,4.579950333E0,4.690500200E-1,-8.602050781E0
2.643303786E1,4.540950298E0,4.690500200E-1,-8.524950027E0
2.645303786E1,4.618050098E0,5.070000291E-1,-8.524950027E0
2.647303786E1,4.636950016E0,5.070000291E-1,-8.544000626E0
2.649303786E1,4.675050259E0,5.070000291E-1,-8.487000465E0
2.651303786E1,4.636950016E0,5.070000291E-1,-8.487000465E0
2.653303786E1,4.618050098E0,5.070000291E-1,-8.544000626E0
2.655303786E1,4.618050098E0,5.260500312E-1,-8.583000183E0
2.657303786E1,4.599000454E0,5.260500312E-1,-8.563050270E0
2.659303786E1,4.636950016E0,4.690500200E-1,-8.544000626E0
2.661303786E1,4.560000420E0,5.260500312E-1,-8.544000626E0
2.663303786E1,4.618050098E0,4.879500270E-1,-8.544000626E0
2.665303786E1,4.636950016E0,5.070000291E-1,-8.506050110E0
2.667303786E1,4.656000137E0,5.070000291E-1,-8.563050270E0
2.669303786E1,4.636950016E0,4.879500270E-1,-8.583000183E0
2.671303786E1,4.618050098E0,5.070000291E-1,-8.544000626E0
2.673303786E1,4.618050098E0,4.690500200E-1,-8.544000626E0
2.675303786E1,4.618050098E0,5.070000291E-1,-8.524950027E0
2.677303786E1,4.636950016E0,4.690500200E-1,-8.563050270E0
2.679303786E1,4.636950016E0,4.500000179E-1,-8.583000183E0
2.681303786E1,4.656000137E0,5.070000291E-1,-8.544000626E0
2.683303786E1,4.656000137E0,5.070000291E-1,-8.524950027E0
2.685303786E1,4.656000137E0,5.260500312E-1,-8.524950027E0
2.687303786E1,4.618050098E0,4.879500270E-1,-8.544000626E0
2.689303786E1,4.636950016E0,4.690500200E-1,-8.544000626E0
2.691303786E1,4.618050098E0,5.070000291E-1,-8.563050270E0
2.693303786E1,4.599000454E0,4.690500200E-1,-8.563050270E0
2.695303786E1,4.618050098E0,4.879500270E-1,-8.487000465E0
2.697303786E1,4.579950333E0,5.070000291E-1,-8.563050270E0
2.699303786E1,4.618050098E0,5.070000291E-1,-8.524950027E0
2.701303786E1,4.636950016E0,5.070000291E-1,-8.563050270E0
2.703303786E1,4.618050098E0,5.070000291E-1,-8.506050110E0
2.705303786E1,4.656000137E0,4.500000179E-1,-8.544000626E0
2.707303786E1,4.636950016E0,5.260500312E-1,-8.544000626E0
2.709303786E1,4.579950333E0,5.460000038E-1,-8.524950027E0
2.711303786E1,4.618050098E0,5.260500312E-1,-8.563050270E0
2.713303786E1,4.656000137E0,4.879500270E-1,-8.524950027E0
2.715303786E1,4.618050098E0,4.690500200E-1,-8.487000465E0
2.717303786E1,4.599000454E0,4.690500200E-1,-8.544000626E0
2.719303786E1,4.579950333E0,5.260500312E-1,-8.544000626E0
2.721303786E1,4.656000137E0,4.879500270E-1,-8.544000626E0
2.723303786E1,4.656000137E0,5.070000291E-1,-8.563050270E0
2.725303786E1,4.579950333E0,5.070000291E-1,-8.524950027E0
2.727303786E1,4.618050098E0,5.070000291E-1,-8.524950027E0
2.729303786E1,4.675050259E0,4.879500270E-1,-8.524950027E0
2.731303786E1,4.693950176E0,4.690500200E-1,-8.544000626E0
2.733303786E1,4.618050098E0,5.260500312E-1,-8.506050110E0
2.735303786E1,4.618050098E0,5.070000291E-1,-8.487000465E0
2.737303786E1,4.656000137E0,4.690500200E-1,-8.563050270E0
2.739303786E1,4.656000137E0,4.690500200E-1,-8.563050270E0
2.741303786E1,4.618050098E0,4.690500200E-1,-8.544000626E0
2.743303786E1,4.618050098E0,5.260500312E-1,-8.563050270E0
2.745303786E1,4.599000454E0,4.879500270E-1,-8.506050110E0
2.747303786E1,4.618050098E0,5.070000291E-1,-8.544000626E0
2.749303786E1,4.618050098E0,5.070000291E-1,-8.524950027E0
2.751303786E1,4.656000137E0,5.460000038E-1,-8.563050270E0
2.753303786E1,4.675050259E0,4.879500270E-1,-8.563050270E0
2.755303786E1,4.599000454E0,5.070000291E-1,-8.544000626E0
2.757303786E1,4.618050098E0,4.879500270E-1,-8.487000465E0
2.759303786E1,4.636950016E0,5.070000291E-1,-8.524950027E0
2.761303786E1,4.618050098E0,5.070000291E-1,-8.544000626E0
2.763303786E1,4.618050098E0,4.879500270E-1,-8.506050110E0
2.765303786E1,4.599000454E0,4.879500270E-1,-8.524950027E0
2.767303786E1,4.618050098E0,4.879500270E-1,-8.544000626E0
2.769303786E1,4.636950016E0,4.879500270E-1,-8.583000183E0
2.771303786E1,4.675050259E0,5.070000291E-1,-8.544000626E0
2.773303786E1,4.636950016E0,4.879500270E-1,-8.524950027E0
2.775303786E1,4.599000454E0,5.460000038E-1,-8.602050781E0
2.777303786E1,4.618050098E0,4.879500270E-1,-8.544000626E0
2.779303786E1,4.618050098E0,5.070000291E-1,-8.544000626E0
2.781303786E1,4.540950298E0,5.260500312E-1,-8.563050270E0
2.783303786E1,4.599000454E0,5.460000038E-1,-8.563050270E0
2.785303786E1,4.618050098E0,4.690500200E-1,-8.563050270E0
2.787303786E1,4.636950016E0,5.260500312E-1,-8.506050110E0
2.789303786E1,4.618050098E0,5.460000038E-1,-8.583000183E0
2.791303786E1,4.656000137E0,4.879500270E-1,-8.544000626E0
2.793303786E1,4.675050259E0,5.070000291E-1,-8.524950027E0
2.795303786E1,4.599000454E0,5.260500312E-1,-8.544000626E0
2.797303786E1,4.618050098E0,4.309500158E-1,-8.524950027E0
2.799303786E1,4.560000420E0,4.690500200E-1,-8.563050270E0
2.801303786E1,4.618050098E0,4.309500158E-1,-8.602050781E0
2.803303786E1,4.599000454E0,4.690500200E-1,-8.544000626E0
2.805303786E1,4.599000454E0,5.460000038E-1,-8.506050110E0
2.807303786E1,4.599000454E0,5.460000038E-1,-8.544000626E0
2.809303786E1,4.599000454E0,5.070000291E-1,-8.506050110E0
2.811303786E1,4.636950016E0,4.879500270E-1,-8.524950027E0
2.813303786E1,4.656000137E0,5.070000291E-1,-8.524950027E0
2.815303786E1,4.675050259E0,5.260500312E-1,-8.563050270E0
2.817303786E1,4.656000137E0,4.879500270E-1,-8.602050781E0
2.819303786E1,4.636950016E0,5.070000291E-1,-8.544000626E0
2.821303786E1,4.599000454E0,4.879500270E-1,-8.563050270E0
2.823303786E1,4.579950333E0,5.070000291E-1,-8.506050110E0
2.825303786E1,4.636950016E0,4.690500200E-1,-8.544000626E0
2.827303786E1,4.599000454E0,5.070000291E-1,-8.506050110E0
2.829303786E1,4.579950333E0,5.260500312E-1,-8.563050270E0
2.831303786E1,4.636950016E0,4.879500270E-1,-8.524950027E0
2.833303786E1,4.656000137E0,4.690500200E-1,-8.524950027E0
2.835303786E1,4.656000137E0,4.879500270E-1,-8.506050110E0
2.837303786E1,4.618050098E0,4.690500200E-1,-8.524950027E0
2.839303786E1,4.656000137E0,4.879500270E-1,-8.506050110E0
2.841303786E1,4.599000454E0,4.879500270E-1,-8.544000626E0
2.843303786E1,4.579950333E0,5.070000291E-1,-8.563050270E0
2.845303786E1,4.599000454E0,5.070000291E-1,-8.524950027E0
2.847303786E1,4.618050098E0,4.879500270E-1,-8.524950027E0
2.849303786E1,4.618050098E0,4.879500270E-1,-8.544000626E0
2.851303786E1,4.618050098E0,4.690500200E-1,-8.544000626E0
2.853303786E1,4.618050098E0,5.260500312E-1,-8.524950027E0
2.855303786E1,4.636950016E0,5.070000291E-1,-8.583000183E0
2.857303786E1,4.599000454E0,4.879500270E-1,-8.620950699E0
2.859303786E1,4.656000137E0,4.690500200E-1,-8.544000626E0
2.861303786E1,4.636950016E0,5.460000038E-1,-8.544000626E0
2.863303786E1,4.636950016E0,5.260500312E-1,-8.524950027E0
2.865303786E1,4.636950016E0,4.690500200E-1,-8.544000626E0
2.867303786E1,4.560000420E0,4.690500200E-1,-8.524950027E0
2.869303786E1,4.636950016E0,4.309500158E-1,-8.524950027E0
2.871303786E1,4.599000454E0,4.500000179E-1,-8.487000465E0
2.873303786E1,4.656000137E0,4.879500270E-1,-8.544000626E0
2.875303786E1,4.560000420E0,4.500000179E-1,-8.563050270E0
2.877303786E1,4.579950333E0,5.260500312E-1,-8.563050270E0
2.879303786E1,4.618050098E0,5.070000291E-1,-8.563050270E0
2.881303786E1,4.636950016E0,4.879500270E-1,-8.524950027E0
2.883303786E1,4.618050098E0,4.879500270E-1,-8.544000626E0
2.885303786E1,4.599000454E0,5.070000291E-1,-8.544000626E0
2.887303786E1,4.579950333E0,5.260500312E-1,-8.563050270E0
2.889303786E1,4.618050098E0,5.260500312E-1,-8.506050110E0
2.891303786E1,4.618050098E0,5.260500312E-1,-8.563050270E0
2.893303786E1,4.618050098E0,5.070000291E-1,-8.544000626E0
2.895303786E1,4.599000454E0,4.879500270E-1,-8.524950027E0
2.897303786E1,4.656000137E0,4.690500200E-1,-8.524950027E0
2.899303786E1,4.675050259E0,4.879500270E-1,-8.544000626E0
2.901303786E1,4.752000332E0,4.879500270E-1,-8.563050270E0
2.903303786E1,4.732950211E0,4.690500200E-1,-8.659049988E0
2.905303786E1,4.752000332E0,5.070000291E-1,-8.524950027E0
2.907303786E1,4.618050098E0,4.879500270E-1,-8.467950821E0
2.909303786E1,4.540950298E0,5.260500312E-1,-8.487000465E0
2.911303786E1,4.503000259E0,5.260500312E-1,-8.487000465E0
2.913303786E1,4.522050381E0,4.690500200E-1,-8.602050781E0
2.915303786E1,4.599000454E0,4.690500200E-1,-8.563050270E0
2.917303786E1,4.560000420E0,5.070000291E-1,-8.544000626E0
2.919303786E1,4.579950333E0,4.879500270E-1,-8.449049950E0
2.921303786E1,4.579950333E0,4.879500270E-1,-8.524950027E0
2.923303786E1,4.636950016E0,4.879500270E-1,-8.583000183E0
2.925303786E1,4.636950016E0,4.500000179E-1,-8.524950027E0
2.927303786E1,4.656000137E0,4.879500270E-1,-8.506050110E0
2.929303786E1,4.656000137E0,4.500000179E-1,-8.544000626E0
2.931303786E1,4.618050098E0,5.070000291E-1,-8.506050110E0
2.933303786E1,4.599000454E0,4.879500270E-1,-8.563050270E0
2.935303786E1,4.618050098E0,4.879500270E-1,-8.620950699E0
2.937303786E1,4.656000137E0,5.460000038E-1,-8.563050270E0
2.939303786E1,4.656000137E0,5.070000291E-1,-8.524950027E0
2.941303786E1,4.636950016E0,4.879500270E-1,-8.524950027E0
2.943303786E1,4.579950333E0,5.260500312E-1,-8.506050110E0
2.945303786E1,4.599000454E0,5.070000291E-1,-8.506050110E0
2.947303786E1,4.599000454E0,5.070000291E-1,-8.544000626E0
2.949303786E1,4.560000420E0,5.260500312E-1,-8.583000183E0
2.951303786E1,4.618050098E0,4.879500270E-1,-8.544000626E0
2.953303786E1,4.618050098E0,5.260500312E-1,-8.583000183E0
2.955303786E1,4.599000454E0,4.879500270E-1,-8.544000626E0
2.957303786E1,4.636950016E0,5.260500312E-1,-8.583000183E0
2.959303786E1,4.618050098E0,4.879500270E-1,-8.524950027E0
2.961303786E1,4.618050098E0,5.070000291E-1,-8.524950027E0
2.963303786E1,4.560000420E0,5.070000291E-1,-8.583000183E0
2.965303786E1,4.618050098E0,5.260500312E-1,-8.544000626E0
2.967303786E1,4.560000420E0,5.260500312E-1,-8.602050781E0
2.969303786E1,4.599000454E0,4.879500270E-1,-8.602050781E0
2.971303786E1,4.579950333E0,5.070000291E-1,-8.583000183E0
2.973303786E1,4.599000454E0,4.690500200E-1,-8.602050781E0
2.975303786E1,4.560000420E0,4.879500270E-1,-8.544000626E0
2.977303786E1,4.618050098E0,4.879500270E-1,-8.524950027E0
2.979303786E1,4.579950333E0,4.879500270E-1,-8.524950027E0
2.981303786E1,4.599000454E0,5.460000038E-1,-8.563050270E0
2.983303786E1,4.579950333E0,5.070000291E-1,-8.563050270E0
2.985303786E1,4.618050098E0,5.070000291E-1,-8.544000626E0
2.987303786E1,4.599000454E0,4.690500200E-1,-8.583000183E0
2.989303786E1,4.579950333E0,4.690500200E-1,-8.583000183E0
2.991303786E1,4.599000454E0,5.070000291E-1,-8.583000183E0
2.993303786E1,4.540950298E0,4.879500270E-1,-8.563050270E0
2.995303786E1,4.579950333E0,4.879500270E-1,-8.583000183E0
2.997303786E1,4.579950333E0,5.070000291E-1,-8.544000626E0
2.999303786E1,4.540950298E0,4.690500200E-1,-8.583000183E0
3.001303786E1,4.599000454E0,5.070000291E-1,-8.544000626E0
3.003303786E1,4.560000420E0,4.879500270E-1,-8.583000183E0
3.005303786E1,4.599000454E0,4.879500270E-1,-8.620950699E0
3.007303786E1,4.599000454E0,5.460000038E-1,-8.583000183E0
3.009303786E1,4.579950333E0,5.070000291E-1,-8.583000183E0
3.011303786E1,4.618050098E0,5.070000291E-1,-8.524950027E0
3.013303786E1,4.618050098E0,5.070000291E-1,-8.602050781E0
3.015303786E1,4.599000454E0,5.460000038E-1,-8.524950027E0
3.017303786E1,4.618050098E0,4.690500200E-1,-8.563050270E0
3.019303786E1,4.579950333E0,4.879500270E-1,-8.563050270E0
3.021303786E1,4.599000454E0,4.690500200E-1,-8.620950699E0
3.023303786E1,4.560000420E0,4.690500200E-1,-8.563050270E0
3.025303786E1,4.579950333E0,5.070000291E-1,-8.563050270E0
3.027303786E1,4.599000454E0,5.260500312E-1,-8.563050270E0
3.029303786E1,4.618050098E0,5.070000291E-1,-8.620950699E0
3.031303786E1,4.656000137E0,5.460000038E-1,-8.506050110E0
3.033303786E1,4.618050098E0,5.460000038E-1,-8.544000626E0
3.035303786E1,4.579950333E0,5.260500312E-1,-8.583000183E0
3.037303786E1,4.560000420E0,5.070000291E-1,-8.583000183E0
3.039303786E1,4.599000454E0,5.260500312E-1,-8.563050270E0
3.041303786E1,4.599000454E0,5.460000038E-1,-8.620950699E0
3.043303786E1,4.560000420E0,5.260500312E-1,-8.563050270E0
3.045303786E1,4.599000454E0,5.070000291E-1,-8.506050110E0
3.047303786E1,4.579950333E0,4.690500200E-1,-8.563050270E0
3.049303786E1,4.599000454E0,5.070000291E-1,-8.563050270E0
3.051303786E1,4.599000454E0,5.260500312E-1,-8.563050270E0
3.053303786E1,4.579950333E0,5.260500312E-1,-8.544000626E0
3.055303786E1,4.599000454E0,4.879500270E-1,-8.583000183E0
3.057303786E1,4.560000420E0,5.260500312E-1,-8.544000626E0
3.059303786E1,4.599000454E0,5.070000291E-1,-8.524950027E0
3.061303786E1,4.560000420E0,4.879500270E-1,-8.563050270E0
3.063303786E1,4.579950333E0,5.260500312E-1,-8.563050270E0
3.065303786E1,4.579950333E0,4.879500270E-1,-8.583000183E0
3.067303786E1,4.599000454E0,4.879500270E-1,-8.544000626E0
3.069303786E1,4.618050098E0,5.260500312E-1,-8.583000183E0
3.071303786E1,4.579950333E0,5.260500312E-1,-8.544000626E0
3.073303786E1,4.599000454E0,5.260500312E-1,-8.602050781E0
3.075303786E1,4.599000454E0,5.070000291E-1,-8.544000626E0
3.077303786E1,4.599000454E0,5.650500059E-1,-8.524950027E0
3.079303786E1,4.618050098E0,5.460000038E-1,-8.544000626E0
3.081303786E1,4.618050098E0,5.260500312E-1,-8.563050270E0
3.083303786E1,4.656000137E0,5.070000291E-1,-8.583000183E0
3.085303786E1,4.618050098E0,4.690500200E-1,-8.544000626E0
3.087303786E1,4.599000454E0,4.879500270E-1,-8.544000626E0
3.089303786E1,4.579950333E0,4.690500200E-1,-8.544000626E0
3.091303786E1,4.599000454E0,4.690500200E-1,-8.524950027E0
3.093303786E1,4.579950333E0,5.260500312E-1,-8.563050270E0
3.095303786E1,4.560000420E0,5.260500312E-1,-8.506050110E0
3.097303786E1,4.599000454E0,5.070000291E-1,-8.583000183E0
3.099303786E1,4.656000137E0,4.879500270E-1,-8.544000626E0
3.101303786E1,4.618050098E0,4.879500270E-1,-8.544000626E0
3.103303786E1,4.618050098E0,5.070000291E-1,-8.524950027E0
3.105303786E1,4.636950016E0,5.460000038E-1,-8.563050270E0
3.107303786E1,4.618050098E0,5.260500312E-1,-8.583000183E0
3.109303786E1,4.599000454E0,5.070000291E-1,-8.602050781E0
3.111303786E1,4.560000420E0,4.879500270E-1,-8.583000183E0
3.113303786E1,4.560000420E0,4.879500270E-1,-8.524950027E0
3.115303786E1,4.560000420E0,5.260500312E-1,-8.583000183E0
3.117303786E1,4.579950333E0,5.070000291E-1,-8.563050270E0
3.119303786E1,4.618050098E0,5.070000291E-1,-8.524950027E0
3.121303786E1,4.618050098E0,5.070000291E-1,-8.544000626E0
3.123303786E1,4.656000137E0,4.690500200E-1,-8.544000626E0
3.125303786E1,4.618050098E0,4.500000179E-1,-8.544000626E0
3.127303786E1,4.636950016E0,5.260500312E-1,-8.544000626E0
3.129303786E1,4.599000454E0,5.260500312E-1,-8.524950027E0
3.131303786E1,4.560000420E0,4.879500270E-1,-8.583000183E0
3.133303786E1,4.560000420E0,4.879500270E-1,-8.563050270E0
3.135303786E1,4.579950333E0,4.690500200E-1,-8.583000183E0
3.137303786E1,4.579950333E0,4.879500270E-1,-8.563050270E0
3.139303786E1,4.599000454E0,5.260500312E-1,-8.467950821E0
3.141303786E1,4.599000454E0,4.879500270E-1,-8.524950027E0
3.143303786E1,4.618050098E0,5.070000291E-1,-8.544000626E0
3.145303786E1,4.599000454E0,5.650500059E-1,-8.583000183E0
3.147303786E1,4.636950016E0,5.260500312E-1,-8.544000626E0
3.149303786E1,4.656000137E0,5.070000291E-1,-8.524950027E0
3.151303786E1,4.599000454E0,4.879500270E-1,-8.544000626E0
3.153303786E1,4.560000420E0,4.500000179E-1,-8.544000626E0
3.155303786E1,4.599000454E0,4.690500200E-1,-8.544000626E0
3.157303786E1,4.599000454E0,4.690500200E-1,-8.563050270E0
3.159303786E1,4.599000454E0,4.690500200E-1,-8.544000626E0
3.161303786E1,4.599000454E0,4.879500270E-1,-8.583000183E0
3.163303786E1,4.636950016E0,5.070000291E-1,-8.524950027E0
3.165303786E1,4.599000454E0,4.879500270E-1,-8.524950027E0
3.167303786E1,4.599000454E0,4.879500270E-1,-8.583000183E0
3.169303786E1,4.618050098E0,4.690500200E-1,-8.563050270E0
3.171303786E1,4.560000420E0,4.879500270E-1,-8.544000626E0
3.173303786E1,4.560000420E0,5.070000291E-1,-8.544000626E0
3.175303786E1,4.599000454E0,5.070000291E-1,-8.583000183E0
3.177303786E1,4.579950333E0,4.879500270E-1,-8.563050270E0
3.179303786E1,4.618050098E0,4.879500270E-1,-8.544000626E0
3.181303786E1,4.599000454E0,4.879500270E-1,-8.506050110E0
3.183303786E1,4.599000454E0,4.879500270E-1,-8.563050270E0
3.185303786E1,4.618050098E0,5.260500312E-1,-8.563050270E0
3.187303786E1,4.579950333E0,5.460000038E-1,-8.563050270E0
3.189303786E1,4.540950298E0,5.070000291E-1,-8.524950027E0
3.191303786E1,4.579950333E0,5.070000291E-1,-8.602050781E0
3.193303786E1,4.599000454E0,4.879500270E-1,-8.544000626E0
3.195303786E1,4.579950333E0,4.879500270E-1,-8.544000626E0
3.197303786E1,4.599000454E0,5.260500312E-1,-8.620950699E0
3.199303786E1,4.599000454E0,5.070000291E-1,-8.640000343E0
3.201303786E1,4.618050098E0,5.070000291E-1,-8.544000626E0
3.203303786E1,4.599000454E0,5.070000291E-1,-8.563050270E0
3.205303786E1,4.599000454E0,5.260500312E-1,-8.524950027E0
3.207303786E1,4.599000454E0,5.070000291E-1,-8.583000183E0
3.209303786E1,4.560000420E0,4.879500270E-1,-8.563050270E0
3.211303786E1,4.618050098E0,4.879500270E-1,-8.563050270E0
3.213303786E1,4.599000454E0,4.879500270E-1,-8.544000626E0
3.215303786E1,4.560000420E0,5.260500312E-1,-8.563050270E0
3.217303786E1,4.579950333E0,5.460000038E-1,-8.620950699E0
3.219303786E1,4.618050098E0,4.879500270E-1,-8.544000626E0
3.221303786E1,4.579950333E0,5.260500312E-1,-8.583000183E0
3.223303786E1,4.560000420E0,4.500000179E-1,-8.524950027E0
3.225303786E1,4.560000420E0,4.879500270E-1,-8.544000626E0
3.227303786E1,4.540950298E0,4.879500270E-1,-8.602050781E0
3.229303786E1,4.599000454E0,5.070000291E-1,-8.602050781E0
3.231303786E1,4.618050098E0,5.070000291E-1,-8.602050781E0
3.233303786E1,4.599000454E0,5.260500312E-1,-8.583000183E0
3.235303786E1,4.599000454E0,5.260500312E-1,-8.563050270E0
3.237303786E1,4.579950333E0,5.070000291E-1,-8.563050270E0
3.239303786E1,4.599000454E0,5.070000291E-1,-8.602050781E0
3.241303786E1,4.599000454E0,5.260500312E-1,-8.583000183E0
3.243303786E1,4.579950333E0,5.070000291E-1,-8.583000183E0
3.245303786E1,4.599000454E0,5.460000038E-1,-8.583000183E0
3.247303786E1,4.599000454E0,5.260500312E-1,-8.583000183E0
3.249303786E1,4.618050098E0,5.070000291E-1,-8.563050270E0
3.251303786E1,4.560000420E0,5.070000291E-1,-8.602050781E0
3.253303786E1,4.579950333E0,4.879500270E-1,-8.563050270E0
3.255303786E1,4.599000454E0,5.260500312E-1,-8.487000465E0
3.257303786E1,4.560000420E0,5.260500312E-1,-8.602050781E0
3.259303786E1,4.540950298E0,5.260500312E-1,-8.563050270E0
3.261303786E1,4.540950298E0,5.070000291E-1,-8.506050110E0
3.263303786E1,4.579950333E0,4.879500270E-1,-8.563050270E0
3.265303786E1,4.540950298E0,5.260500312E-1,-8.563050270E0
3.267303786E1,4.579950333E0,5.260500312E-1,-8.583000183E0
3.269303786E1,4.599000454E0,5.260500312E-1,-8.602050781E0
3.271303786E1,4.579950333E0,5.260500312E-1,-8.563050270E0
3.273303786E1,4.540950298E0,5.260500312E-1,-8.583000183E0
3.275303786E1,4.579950333E0,5.260500312E-1,-8.506050110E0
3.277303786E1,4.560000420E0,5.070000291E-1,-8.563050270E0
3.279303786E1,4.599000454E0,4.879500270E-1,-8.583000183E0
3.281303786E1,4.579950333E0,4.879500270E-1,-8.620950699E0
3.283303786E1,4.540950298E0,5.070000291E-1,-8.602050781E0
3.285303786E1,4.540950298E0,5.070000291E-1,-8.583000183E0
3.287303786E1,4.560000420E0,5.070000291E-1,-8.563050270E0
3.289303786E1,4.560000420E0,5.260500312E-1,-8.620950699E0
3.291303786E1,4.579950333E0,5.839500427E-1,-8.583000183E0
3.293303786E1,4.560000420E0,5.460000038E-1,-8.544000626E0
3.295303786E1,4.599000454E0,4.879500270E-1,-8.524950027E0
3.297303786E1,4.579950333E0,5.260500312E-1,-8.563050270E0
3.299303786E1,4.540950298E0,4.879500270E-1,-8.563050270E0
3.301303786E1,4.560000420E0,4.879500270E-1,-8.544000626E0
3.303303786E1,4.560000420E0,5.650500059E-1,-8.583000183E0
3.305303786E1,4.579950333E0,5.070000291E-1,-8.563050270E0
3.307303786E1,4.540950298E0,5.070000291E-1,-8.563050270E0
3.309303786E1,4.599000454E0,5.260500312E-1,-8.563050270E0
3.311303786E1,4.560000420E0,5.260500312E-1,-8.563050270E0
3.313303786E1,4.636950016E0,5.260500312E-1,-8.544000626E0
3.315303786E1,4.579950333E0,5.070000291E-1,-8.544000626E0
3.317303786E1,4.579950333E0,5.260500312E-1,-8.563050270E0
3.319303786E1,4.560000420E0,5.260500312E-1,-8.602050781E0
3.321303786E1,4.579950333E0,5.650500059E-1,-8.544000626E0
3.323303786E1,4.540950298E0,5.260500312E-1,-8.544000626E0
3.325303786E1,4.560000420E0,5.070000291E-1,-8.583000183E0
3.327303786E1,4.560000420E0,5.260500312E-1,-8.563050270E0
3.329303786E1,4.579950333E0,4.879500270E-1,-8.563050270E0
3.331303786E1,4.579950333E0,5.260500312E-1,-8.563050270E0
3.333303786E1,4.560000420E0,5.260500312E-1,-8.524950027E0
3.335303786E1,4.579950333E0,4.879500270E-1,-8.583000183E0
3.337303786E1,4.540950298E0,5.260500312E-1,-8.563050270E0
3.339303786E1,4.540950298E0,5.070000291E-1,-8.583000183E0
3.341303786E1,4.599000454E0,5.260500312E-1,-8.563050270E0
3.343303786E1,4.579950333E0,5.260500312E-1,-8.563050270E0
3.345303786E1,4.579950333E0,5.070000291E-1,-8.544000626E0
3.347303786E1,4.540950298E0,4.879500270E-1,-8.544000626E0
3.349303786E1,4.560000420E0,5.070000291E-1,-8.544000626E0
3.351303786E1,4.560000420E0,5.260500312E-1,-8.563050270E0
3.353303786E1,4.560000420E0,5.070000291E-1,-8.583000183E0
3.355303786E1,4.540950298E0,5.070000291E-1,-8.544000626E0
3.357303786E1,4.560000420E0,5.070000291E-1,-8.544000626E0
3.359303786E1,4.540950298E0,4.879500270E-1,-8.563050270E0
3.361303786E1,4.618050098E0,4.879500270E-1,-8.563050270E0
3.363303786E1,4.618050098E0,5.650500059E-1,-8.563050270E0
3.365303786E1,4.579950333E0,5.839500427E-1,-8.563050270E0
3.367303786E1,4.618050098E0,5.460000038E-1,-8.583000183E0
3.369303786E1,4.618050098E0,4.879500270E-1,-8.544000626E0
3.371303786E1,4.560000420E0,4.879500270E-1,-8.563050270E0
3.373303786E1,4.503000259E0,4.690500200E-1,-8.563050270E0
3.375303786E1,4.540950298E0,4.500000179E-1,-8.544000626E0
3.377303786E1,4.579950333E0,4.500000179E-1,-8.583000183E0
3.379303786E1,4.599000454E0,4.690500200E-1,-8.563050270E0
3.381303786E1,4.599000454E0,5.070000291E-1,-8.544000626E0
3.383303786E1,4.579950333E0,5.460000038E-1,-8.544000626E0
3.385303786E1,4.618050098E0,5.070000291E-1,-8.524950027E0
3.387303786E1,4.599000454E0,4.879500270E-1,-8.563050270E0
3.389303786E1,4.560000420E0,5.260500312E-1,-8.544000626E0
3.391303786E1,4.579950333E0,5.070000291E-1,-8.583000183E0
3.393303786E1,4.599000454E0,4.879500270E-1,-8.563050270E0
3.395303786E1,4.579950333E0,5.260500312E-1,-8.583000183E0
3.397303786E1,4.579950333E0,5.460000038E-1,-8.563050270E0
3.399303786E1,4.618050098E0,5.070000291E-1,-8.524950027E0
3.401303786E1,4.618050098E0,4.879500270E-1,-8.563050270E0
3.403303786E1,4.560000420E0,5.070000291E-1,-8.544000626E0
3.405303786E1,4.599000454E0,5.070000291E-1,-8.524950027E0
3.407303786E1,4.599000454E0,5.070000291E-1,-8.544000626E0
3.409303786E1,4.579950333E0,5.260500312E-1,-8.563050270E0
3.411303786E1,4.579950333E0,5.260500312E-1,-8.583000183E0
3.413303786E1,4.540950298E0,4.879500270E-1,-8.544000626E0
3.415303786E1,4.522050381E0,4.879500270E-1,-8.524950027E0
3.417303786E1,4.560000420E0,4.879500270E-1,-8.583000183E0
3.419303786E1,4.618050098E0,5.070000291E-1,-8.544000626E0
3.421303786E1,4.522050381E0,5.070000291E-1,-8.544000626E0
3.423303786E1,4.560000420E0,4.879500270E-1,-8.602050781E0
3.425303786E1,4.636950016E0,5.070000291E-1,-8.563050270E0
3.427303786E1,4.560000420E0,5.070000291E-1,-8.506050110E0
3.429303786E1,4.560000420E0,4.879500270E-1,-8.583000183E0
3.431303786E1,4.636950016E0,4.690500200E-1,-8.583000183E0
3.433303786E1,4.599000454E0,5.070000291E-1,-8.602050781E0
3.435303786E1,4.540950298E0,5.650500059E-1,-8.583000183E0
3.437303786E1,4.618050098E0,5.460000038E-1,-8.583000183E0
3.439303786E1,4.599000454E0,5.070000291E-1,-8.602050781E0
3.441303786E1,4.560000420E0,5.460000038E-1,-8.544000626E0
3.443303786E1,4.503000259E0,4.879500270E-1,-8.524950027E0
3.445303786E1,4.560000420E0,4.500000179E-1,-8.524950027E0
3.447303786E1,4.560000420E0,4.500000179E-1,-8.524950027E0
3.449303786E1,4.579950333E0,5.260500312E-1,-8.583000183E0
3.451303786E1,4.579950333E0,5.260500312E-1,-8.563050270E0
3.453303786E1,4.636950016E0,5.260500312E-1,-8.563050270E0
3.455303786E1,4.579950333E0,5.070000291E-1,-8.563050270E0
3.457303786E1,4.618050098E0,5.070000291E-1,-8.563050270E0
3.459303786E1,4.618050098E0,4.879500270E-1,-8.583000183E0
3.461303786E1,4.599000454E0,5.070000291E-1,-8.544000626E0
3.463303786E1,4.560000420E0,5.460000038E-1,-8.583000183E0
3.465303786E1,4.599000454E0,5.650500059E-1,-8.544000626E0
3.467303786E1,4.579950333E0,5.650500059E-1,-8.563050270E0
3.469303786E1,4.618050098E0,5.460000038E-1,-8.563050270E0
3.471303786E1,4.579950333E0,5.070000291E-1,-8.563050270E0
3.473303786E1,4.599000454E0,5.070000291E-1,-8.563050270E0
3.475303786E1,4.599000454E0,4.879500270E-1,-8.563050270E0
3.477303786E1,4.540950298E0,4.879500270E-1,-8.563050270E0
3.479303786E1,4.599000454E0,4.879500270E-1,-8.544000626E0
3.481303786E1,4.579950333E0,5.260500312E-1,-8.544000626E0
3.483303786E1,4.599000454E0,4.690500200E-1,-8.524950027E0
3.485303786E1,4.618050098E0,4.879500270E-1,-8.563050270E0
3.487303786E1,4.579950333E0,5.070000291E-1,-8.602050781E0
3.489303786E1,4.540950298E0,4.690500200E-1,-8.563050270E0
3.491303786E1,4.540950298E0,4.879500270E-1,-8.620950699E0
3.493303786E1,4.522050381E0,5.070000291E-1,-8.620950699E0
3.495303786E1,4.560000420E0,5.260500312E-1,-8.563050270E0
3.497303786E1,4.540950298E0,4.879500270E-1,-8.583000183E0
3.499303786E1,4.540950298E0,5.260500312E-1,-8.583000183E0
3.501303786E1,4.618050098E0,5.460000038E-1,-8.583000183E0
3.503303786E1,4.579950333E0,5.070000291E-1,-8.583000183E0
3.505303786E1,4.618050098E0,5.260500312E-1,-8.524950027E0
3.507303786E1,4.599000454E0,5.260500312E-1,-8.583000183E0
3.509303786E1,4.579950333E0,5.070000291E-1,-8.563050270E0
3.511303786E1,4.522050381E0,5.260500312E-1,-8.544000626E0
3.513303786E1,4.579950333E0,5.070000291E-1,-8.583000183E0
3.515303786E1,4.540950298E0,4.879500270E-1,-8.544000626E0
3.517303786E1,4.579950333E0,5.070000291E-1,-8.544000626E0
3.519303786E1,4.540950298E0,4.690500200E-1,-8.563050270E0
3.521303786E1,4.560000420E0,4.879500270E-1,-8.620950699E0
3.523303786E1,4.540950298E0,5.260500312E-1,-8.544000626E0
3.525303786E1,4.540950298E0,4.500000179E-1,-8.583000183E0
3.527303786E1,4.579950333E0,5.260500312E-1,-8.583000183E0
3.529303786E1,4.540950298E0,4.879500270E-1,-8.544000626E0
3.531303786E1,4.560000420E0,5.070000291E-1,-8.544000626E0
3.533303786E1,4.522050381E0,5.839500427E-1,-8.583000183E0
3.535303786E1,4.522050381E0,5.260500312E-1,-8.602050781E0
3.537303786E1,4.560000420E0,5.260500312E-1,-8.583000183E0
3.539303786E1,4.522050381E0,5.070000291E-1,-8.583000183E0
3.541303786E1,4.579950333E0,5.460000038E-1,-8.602050781E0
3.543303786E1,4.599000454E0,5.460000038E-1,-8.563050270E0
3.545303786E1,4.579950333E0,4.879500270E-1,-8.524950027E0
3.547303786E1,4.579950333E0,4.690500200E-1,-8.640000343E0
3.549303786E1,4.579950333E0,4.879500270E-1,-8.506050110E0
3.551303786E1,4.560000420E0,4.879500270E-1,-8.583000183E0
3.553303786E1,4.579950333E0,4.879500270E-1,-8.544000626E0
3.555303786E1,4.579950333E0,4.690500200E-1,-8.544000626E0
3.557303786E1,4.522050381E0,5.070000291E-1,-8.602050781E0
3.559303786E1,4.579950333E0,4.879500270E-1,-8.544000626E0
3.561303786E1,4.599000454E0,4.879500270E-1,-8.583000183E0
3.563303786E1,4.560000420E0,5.460000038E-1,-8.583000183E0
3.565303786E1,4.522050381E0,5.070000291E-1,-8.583000183E0
3.567303786E1,4.579950333E0,5.260500312E-1,-8.544000626E0
3.569303786E1,4.579950333E0,4.879500270E-1,-8.544000626E0
3.571303786E1,4.579950333E0,5.070000291E-1,-8.544000626E0
3.573303786E1,4.579950333E0,5.070000291E-1,-8.563050270E0
3.575303786E1,4.522050381E0,5.260500312E-1,-8.583000183E0
3.577303786E1,4.560000420E0,5.070000291E-1,-8.563050270E0
3.579303786E1,4.618050098E0,5.260500312E-1,-8.563050270E0
3.581303786E1,4.560000420E0,5.460000038E-1,-8.620950699E0
3.583303786E1,4.579950333E0,5.460000038E-1,-8.602050781E0
3.585303786E1,4.618050098E0,5.070000291E-1,-8.602050781E0
3.587303786E1,4.636950016E0,5.260500312E-1,-8.524950027E0
3.589303786E1,4.560000420E0,5.260500312E-1,-8.563050270E0
3.591303786E1,4.560000420E0,5.070000291E-1,-8.544000626E0
3.593303786E1,4.560000420E0,5.070000291E-1,-8.487000465E0
3.595303786E1,4.540950298E0,4.879500270E-1,-8.583000183E0
3.597303786E1,4.579950333E0,5.260500312E-1,-8.620950699E0
3.599303786E1,4.540950298E0,5.460000038E-1,-8.602050781E0
3.601303786E1,4.560000420E0,5.650500059E-1,-8.583000183E0
3.603303786E1,4.560000420E0,5.070000291E-1,-8.583000183E0
3.605303786E1,4.599000454E0,5.070000291E-1,-8.563050270E0
3.607303786E1,4.540950298E0,5.260500312E-1,-8.544000626E0
3.609303786E1,4.540950298E0,4.879500270E-1,-8.583000183E0
3.611303786E1,4.540950298E0,5.460000038E-1,-8.563050270E0
3.613303786E1,4.579950333E0,5.070000291E-1,-8.544000626E0
3.615303786E1,4.560000420E0,5.260500312E-1,-8.563050270E0
3.617303786E1,4.560000420E0,5.070000291E-1,-8.583000183E0
3.619303786E1,4.579950333E0,5.260500312E-1,-8.544000626E0
3.621303786E1,4.636950016E0,5.070000291E-1,-8.563050270E0
3.623303786E1,4.579950333E0,5.260500312E-1,-8.544000626E0
3.625303786E1,4.579950333E0,4.879500270E-1,-8.563050270E0
3.627303786E1,4.618050098E0,5.260500312E-1,-8.583000183E0
3.629303786E1,4.579950333E0,4.879500270E-1,-8.563050270E0
3.631303786E1,4.618050098E0,5.070000291E-1,-8.563050270E0
3.633303786E1,4.599000454E0,5.260500312E-1,-8.583000183E0
3.635303786E1,4.618050098E0,5.070000291E-1,-8.563050270E0
3.637303786E1,4.522050381E0,5.260500312E-1,-8.563050270E0
3.639303786E1,4.579950333E0,5.070000291E-1,-8.524950027E0
3.641303786E1,4.579950333E0,5.460000038E-1,-8.602050781E0
3.643303786E1,4.560000420E0,5.070000291E-1,-8.544000626E0
3.645303786E1,4.579950333E0,4.879500270E-1,-8.602050781E0
3.647303786E1,4.560000420E0,4.879500270E-1,-8.563050270E0
3.649303786E1,4.560000420E0,5.260500312E-1,-8.524950027E0
3.651303786E1,4.599000454E0,4.879500270E-1,-8.544000626E0
3.653303786E1,4.579950333E0,4.879500270E-1,-8.563050270E0
3.655303786E1,4.618050098E0,5.460000038E-1,-8.620950699E0
3.657303786E1,4.618050098E0,5.460000038E-1,-8.583000183E0
3.659303786E1,4.579950333E0,5.460000038E-1,-8.602050781E0
3.661303786E1,4.579950333E0,4.879500270E-1,-8.544000626E0
3.663303786E1,4.540950298E0,4.500000179E-1,-8.544000626E0
3.665303786E1,4.579950333E0,5.070000291E-1,-8.583000183E0
3.667303786E1,4.540950298E0,4.879500270E-1,-8.602050781E0
3.669303786E1,4.560000420E0,5.070000291E-1,-8.563050270E0
3.671303786E1,4.599000454E0,5.260500312E-1,-8.602050781E0
3.673303786E1,4.599000454E0,5.070000291E-1,-8.544000626E0
3.675303786E1,4.599000454E0,5.460000038E-1,-8.544000626E0
3.677303786E1,4.599000454E0,5.070000291E-1,-8.583000183E0
3.679303786E1,4.599000454E0,5.070000291E-1,-8.563050270E0
3.681303786E1,4.636950016E0,5.460000038E-1,-8.563050270E0
3.683303786E1,4.579950333E0,5.260500312E-1,-8.563050270E0
3.685303786E1,4.579950333E0,5.070000291E-1,-8.544000626E0
3.687303786E1,4.599000454E0,5.070000291E-1,-8.563050270E0
3.689303786E1,4.579950333E0,5.260500312E-1,-8.602050781E0
3.691303786E1,4.618050098E0,4.879500270E-1,-8.602050781E0
3.693303786E1,4.560000420E0,4.879500270E-1,-8.524950027E0
3.695303786E1,4.599000454E0,5.070000291E-1,-8.544000626E0
3.697303786E1,4.560000420E0,4.690500200E-1,-8.563050270E0
3.699303786E1,4.618050098E0,5.070000291E-1,-8.563050270E0
3.701303786E1,4.540950298E0,4.879500270E-1,-8.544000626E0
3.703303786E1,4.560000420E0,5.260500312E-1,-8.544000626E0
3.705303786E1,4.599000454E0,5.260500312E-1,-8.602050781E0
3.707303786E1,4.579950333E0,5.260500312E-1,-8.602050781E0
3.709303786E1,4.599000454E0,5.460000038E-1,-8.583000183E0
3.711303786E1,4.618050098E0,5.260500312E-1,-8.583000183E0
3.713303786E1,4.618050098E0,5.260500312E-1,-8.544000626E0
3.715303786E1,4.560000420E0,5.260500312E-1,-8.563050270E0
3.717303786E1,4.618050098E0,5.460000038E-1,-8.544000626E0
3.719303786E1,4.618050098E0,4.879500270E-1,-8.563050270E0
3.721303786E1,4.636950016E0,5.260500312E-1,-8.583000183E0
3.723303786E1,4.540950298E0,5.650500059E-1,-8.583000183E0
3.725303786E1,4.599000454E0,5.839500427E-1,-8.563050270E0
3.727303786E1,4.618050098E0,5.070000291E-1,-8.563050270E0
3.729303786E1,4.579950333E0,5.260500312E-1,-8.524950027E0
3.731303786E1,4.560000420E0,5.070000291E-1,-8.563050270E0
3.733303786E1,4.540950298E0,5.070000291E-1,-8.563050270E0
3.735303786E1,4.599000454E0,4.879500270E-1,-8.544000626E0
3.737303786E1,4.618050098E0,5.260500312E-1,-8.583000183E0
3.739303786E1,4.618050098E0,5.260500312E-1,-8.563050270E0
3.741303786E1,4.599000454E0,5.650500059E-1,-8.563050270E0
3.743303786E1,4.618050098E0,5.070000291E-1,-8.563050270E0
3.745303786E1,4.636950016E0,4.879500270E-1,-8.583000183E0
3.747303786E1,4.618050098E0,5.650500059E-1,-8.544000626E0
3.749303786E1,4.599000454E0,5.460000038E-1,-8.583000183E0
3.751303786E1,4.618050098E0,5.070000291E-1,-8.563050270E0
3.753303786E1,4.599000454E0,5.650500059E-1,-8.524950027E0
3.755303786E1,4.599000454E0,6.030000448E-1,-8.524950027E0
3.757303786E1,4.618050098E0,6.030000448E-1,-8.583000183E0
3.759303786E1,4.693950176E0,6.030000448E-1,-8.563050270E0
3.761303786E1,4.693950176E0,5.460000038E-1,-8.563050270E0
3.763303786E1,4.732950211E0,5.650500059E-1,-8.583000183E0
3.765303786E1,4.714050293E0,5.839500427E-1,-8.506050110E0
3.767303786E1,4.714050293E0,5.460000038E-1,-8.467950821E0
3.769303786E1,4.675050259E0,5.460000038E-1,-8.506050110E0
3.771303786E1,4.732950211E0,5.070000291E-1,-8.487000465E0
3.773303786E1,4.714050293E0,5.650500059E-1,-8.467950821E0
3.775303786E1,4.771050453E0,5.839500427E-1,-8.487000465E0
3.777303786E1,4.789950371E0,6.220500469E-1,-8.428950310E0
3.779303786E1,4.771050453E0,5.070000291E-1,-8.410050392E0
3.781303786E1,4.771050453E0,4.879500270E-1,-8.449049950E0
3.783303786E1,4.752000332E0,5.650500059E-1,-8.487000465E0
3.785303786E1,4.752000332E0,5.839500427E-1,-8.487000465E0
3.787303786E1,4.848000050E0,5.650500059E-1,-8.506050110E0
3.789303786E1,4.924050331E0,5.839500427E-1,-8.428950310E0
3.791303786E1,4.885950089E0,5.839500427E-1,-8.410050392E0
3.793303786E1,4.924050331E0,5.650500059E-1,-8.449049950E0
3.795303786E1,4.905000210E0,5.460000038E-1,-8.391000748E0
3.797303786E1,5.001000404E0,5.839500427E-1,-8.428950310E0
3.799303786E1,4.981950283E0,6.030000448E-1,-8.391000748E0
3.801303786E1,4.942950249E0,6.409500241E-1,-8.353050232E0
3.803303786E1,5.020050049E0,6.220500469E-1,-8.391000748E0
3.805303786E1,5.038950443E0,6.030000448E-1,-8.334000587E0
3.807303786E1,5.001000404E0,5.839500427E-1,-8.353050232E0
3.809303786E1,4.963050365E0,5.650500059E-1,-8.353050232E0
3.811303786E1,5.001000404E0,5.460000038E-1,-8.353050232E0
3.813303786E1,5.020050049E0,6.030000448E-1,-8.428950310E0
3.815303786E1,5.038950443E0,5.839500427E-1,-8.314949989E0
3.817303786E1,4.981950283E0,5.839500427E-1,-8.314949989E0
3.819303786E1,4.963050365E0,6.030000448E-1,-8.334000587E0
3.821303786E1,5.020050049E0,5.650500059E-1,-8.353050232E0
3.823303786E1,5.077050209E0,6.220500469E-1,-8.314949989E0
3.825303786E1,5.077050209E0,6.030000448E-1,-8.371950150E0
3.827303786E1,5.077050209E0,6.030000448E-1,-8.371950150E0
3.829303786E1,5.116050243E0,6.220500469E-1,-8.314949989E0
3.831303786E1,5.154000282E0,6.220500469E-1,-8.334000587E0
3.833303786E1,5.116050243E0,6.030000448E-1,-8.295000076E0
3.835303786E1,5.134950161E0,5.650500059E-1,-8.275950432E0
3.837303786E1,5.154000282E0,5.839500427E-1,-8.257050514E0
3.839303786E1,5.173050404E0,5.070000291E-1,-8.391000748E0
3.841303786E1,5.173050404E0,6.220500469E-1,-8.295000076E0
3.843303786E1,5.211000443E0,6.409500241E-1,-8.275950432E0
3.845303786E1,5.250000477E0,5.839500427E-1,-8.314949989E0
3.847303786E1,5.269050121E0,5.650500059E-1,-8.237999916E0
3.849303786E1,5.230950356E0,6.220500469E-1,-8.257050514E0
3.851303786E1,5.250000477E0,5.839500427E-1,-8.275950432E0
3.853303786E1,5.287950039E0,5.839500427E-1,-8.237999916E0
3.855303786E1,5.344950199E0,6.610500216E-1,-8.179950714E0
3.857303786E1,5.326050282E0,6.610500216E-1,-8.179950714E0
3.859303786E1,5.307000160E0,6.610500216E-1,-8.179950714E0
3.861303786E1,5.307000160E0,6.220500469E-1,-8.122950554E0
3.863303786E1,5.365050316E0,6.990000606E-1,-8.200050354E0
3.865303786E1,5.344950199E0,7.180500627E-1,-8.161050797E0
3.867303786E1,5.344950199E0,6.799500585E-1,-8.179950714E0
3.869303786E1,5.383950233E0,6.799500585E-1,-8.161050797E0
3.871303786E1,5.403000355E0,6.409500241E-1,-8.179950714E0
3.873303786E1,5.383950233E0,6.799500585E-1,-8.218950272E0
3.875303786E1,5.365050316E0,7.180500627E-1,-8.179950714E0
3.877303786E1,5.403000355E0,6.990000606E-1,-8.161050797E0
3.879303786E1,5.422050476E0,7.369500399E-1,-8.200050354E0
3.881303786E1,5.422050476E0,7.560000420E-1,-8.237999916E0
3.883303786E1,5.403000355E0,7.950000167E-1,-8.179950714E0
3.885303786E1,5.383950233E0,7.369500399E-1,-8.142000198E0
3.887303786E1,5.403000355E0,7.180500627E-1,-8.122950554E0
3.889303786E1,5.383950233E0,7.560000420E-1,-8.218950272E0
3.891303786E1,5.460000038E0,7.560000420E-1,-8.200050354E0
3.893303786E1,5.422050476E0,6.610500216E-1,-8.161050797E0
3.895303786E1,5.287950039E0,8.710500598E-1,-8.104050636E0
3.897303786E1,5.403000355E0,8.520000577E-1,-8.122950554E0
3.899303786E1,5.365050316E0,8.140500188E-1,-8.161050797E0
3.901303786E1,5.365050316E0,8.329500556E-1,-8.104050636E0
3.903303786E1,5.326050282E0,7.950000167E-1,-8.122950554E0
3.905303786E1,5.250000477E0,9.289500713E-1,-8.142000198E0
3.907303786E1,5.440950394E0,9.090000391E-1,-7.989000320E0
3.909303786E1,5.593950272E0,9.090000391E-1,-7.969950199E0
3.911303786E1,5.767050266E0,9.289500713E-1,-7.989000320E0
3.913303786E1,5.920050144E0,8.710500598E-1,-7.777950287E0
3.915303786E1,5.901000500E0,8.520000577E-1,-7.759050369E0
3.917303786E1,5.881950378E0,9.670500755E-1,-7.855050564E0
3.919303786E1,5.938950062E0,9.480000734E-1,-7.893000603E0
3.921303786E1,5.863050461E0,9.289500713E-1,-7.873950481E0
3.923303786E1,5.920050144E0,9.090000391E-1,-7.893000603E0
3.925303786E1,5.842950344E0,8.710500598E-1,-7.873950481E0
3.927303786E1,5.863050461E0,9.090000391E-1,-7.912050247E0
3.929303786E1,5.805000305E0,9.289500713E-1,-7.873950481E0
3.931303786E1,5.748000145E0,9.480000734E-1,-7.855050564E0
3.933303786E1,5.842950344E0,9.090000391E-1,-7.836000443E0
3.935303786E1,5.824050426E0,9.480000734E-1,-7.855050564E0
3.937303786E1,5.901000500E0,9.670500755E-1,-7.912050247E0
3.939303786E1,5.920050144E0,8.710500598E-1,-7.855050564E0
3.941303786E1,5.938950062E0,8.329500556E-1,-7.836000443E0
3.943303786E1,5.938950062E0,8.520000577E-1,-7.797000408E0
3.945303786E1,5.805000305E0,9.090000391E-1,-7.855050564E0
3.947303786E1,5.842950344E0,9.090000391E-1,-7.855050564E0
3.949303786E1,5.805000305E0,9.859500527E-1,-7.893000603E0
3.951303786E1,5.824050426E0,9.480000734E-1,-7.932000160E0
3.953303786E1,5.901000500E0,9.289500713E-1,-7.873950481E0
3.955303786E1,5.881950378E0,9.289500713E-1,-7.836000443E0
3.957303786E1,5.881950378E0,9.090000391E-1,-7.855050564E0
3.959303786E1,5.863050461E0,8.520000577E-1,-7.855050564E0
3.961303786E1,5.842950344E0,8.520000577E-1,-7.836000443E0
3.963303786E1,5.901000500E0,9.090000391E-1,-7.797000408E0
3.965303786E1,5.901000500E0,8.899500370E-1,-7.893000603E0
3.967303786E1,5.881950378E0,9.090000391E-1,-7.836000443E0
3.969303786E1,5.901000500E0,9.289500713E-1,-7.836000443E0
3.971303786E1,5.920050144E0,9.289500713E-1,-7.816950321E0
3.973303786E1,5.958000183E0,9.480000734E-1,-7.836000443E0
3.975303786E1,5.938950062E0,9.289500713E-1,-7.816950321E0
3.977303786E1,5.938950062E0,8.899500370E-1,-7.777950287E0
3.979303786E1,5.920050144E0,9.289500713E-1,-7.759050369E0
3.981303786E1,5.920050144E0,8.899500370E-1,-7.855050564E0
3.983303786E1,5.938950062E0,1.024049997E0,-7.816950321E0
3.985303786E1,5.901000500E0,9.859500527E-1,-7.816950321E0
3.987303786E1,5.977050304E0,9.859500527E-1,-7.836000443E0
3.989303786E1,5.977050304E0,8.899500370E-1,-7.816950321E0
3.991303786E1,5.977050304E0,8.899500370E-1,-7.702050209E0
3.993303786E1,6.016050339E0,8.899500370E-1,-7.836000443E0
3.995303786E1,5.958000183E0,9.859500527E-1,-7.836000443E0
3.997303786E1,5.997000217E0,9.289500713E-1,-7.836000443E0
3.999303786E1,5.920050144E0,9.090000391E-1,-7.816950321E0
4.001303786E1,5.920050144E0,8.710500598E-1,-7.836000443E0
4.003303786E1,5.842950344E0,8.899500370E-1,-7.816950321E0
4.005303786E1,5.842950344E0,9.480000734E-1,-7.816950321E0
4.007303786E1,5.824050426E0,9.670500755E-1,-7.855050564E0
4.009303786E1,5.881950378E0,9.480000734E-1,-7.836000443E0
4.011303786E1,5.842950344E0,9.859500527E-1,-7.855050564E0
4.013303786E1,5.863050461E0,9.480000734E-1,-7.873950481E0
4.015303786E1,5.842950344E0,9.670500755E-1,-7.836000443E0
4.017303786E1,5.920050144E0,9.480000734E-1,-7.816950321E0
4.019303786E1,5.938950062E0,9.289500713E-1,-7.836000443E0
4.021303786E1,5.958000183E0,8.899500370E-1,-7.797000408E0
4.023303786E1,5.997000217E0,9.670500755E-1,-7.836000443E0
4.025303786E1,5.881950378E0,9.859500527E-1,-7.855050564E0
4.027303786E1,5.901000500E0,1.024049997E0,-7.855050564E0
4.029303786E1,5.901000500E0,1.024049997E0,-7.893000603E0
4.031303786E1,5.863050461E0,9.670500755E-1,-7.836000443E0
4.033303786E1,5.863050461E0,1.004999995E0,-7.855050564E0
4.035303786E1,5.863050461E0,9.090000391E-1,-7.836000443E0
4.037303786E1,5.920050144E0,8.899500370E-1,-7.836000443E0
4.039303786E1,5.863050461E0,8.329500556E-1,-7.777950287E0
4.041303786E1,5.958000183E0,9.090000391E-1,-7.777950287E0
4.043303786E1,5.997000217E0,9.090000391E-1,-7.759050369E0
4.045303786E1,6.016050339E0,9.090000391E-1,-7.797000408E0
4.047303786E1,5.997000217E0,9.090000391E-1,-7.816950321E0
4.049303786E1,5.881950378E0,9.859500527E-1,-7.797000408E0
4.051303786E1,5.920050144E0,9.480000734E-1,-7.816950321E0
4.053303786E1,5.881950378E0,9.289500713E-1,-7.873950481E0
4.055303786E1,5.938950062E0,8.710500598E-1,-7.797000408E0
4.057303786E1,5.958000183E0,9.090000391E-1,-7.797000408E0
4.059303786E1,5.863050461E0,9.289500713E-1,-7.797000408E0
4.061303786E1,5.842950344E0,1.004999995E0,-7.855050564E0
4.063303786E1,5.901000500E0,1.024049997E0,-7.855050564E0
4.065303786E1,5.977050304E0,9.670500755E-1,-7.797000408E0
4.067303786E1,5.977050304E0,9.289500713E-1,-7.777950287E0
4.069303786E1,5.938950062E0,9.670500755E-1,-7.816950321E0
4.071303786E1,5.920050144E0,9.289500713E-1,-7.816950321E0
4.073303786E1,5.977050304E0,9.480000734E-1,-7.797000408E0
4.075303786E1,5.920050144E0,9.859500527E-1,-7.816950321E0
4.077303786E1,5.881950378E0,9.859500527E-1,-7.836000443E0
4.079303786E1,5.920050144E0,9.289500713E-1,-7.759050369E0
4.081303786E1,5.977050304E0,9.289500713E-1,-7.777950287E0
4.083303786E1,5.977050304E0,9.090000391E-1,-7.816950321E0
4.085303786E1,5.997000217E0,9.289500713E-1,-7.797000408E0
4.087303786E1,5.977050304E0,9.480000734E-1,-7.816950321E0
4.089303786E1,6.016050339E0,9.480000734E-1,-7.797000408E0
4.091303786E1,5.938950062E0,9.480000734E-1,-7.740000248E0
4.093303786E1,5.938950062E0,9.859500527E-1,-7.644000530E0
4.095303786E1,5.997000217E0,8.899500370E-1,-7.836000443E0
4.097303786E1,6.034950256E0,8.899500370E-1,-7.777950287E0
4.099303786E1,6.016050339E0,8.899500370E-1,-7.759050369E0
4.101303786E1,5.958000183E0,9.289500713E-1,-7.720950603E0
4.103303786E1,5.997000217E0,8.899500370E-1,-7.720950603E0
4.105303786E1,6.034950256E0,9.480000734E-1,-7.740000248E0
4.107303786E1,6.016050339E0,9.670500755E-1,-7.683000565E0
4.109303786E1,6.054000378E0,1.004999995E0,-7.740000248E0
4.111303786E1,6.073050499E0,9.670500755E-1,-7.740000248E0
4.113303786E1,6.091950417E0,9.090000391E-1,-7.702050209E0
4.115303786E1,6.111000061E0,9.480000734E-1,-7.720950603E0
4.117303786E1,6.034950256E0,9.090000391E-1,-7.740000248E0
4.119303786E1,6.016050339E0,8.899500370E-1,-7.702050209E0
4.121303786E1,6.034950256E0,9.480000734E-1,-7.759050369E0
4.123303786E1,5.958000183E0,1.024049997E0,-7.740000248E0
4.125303786E1,6.016050339E0,1.024049997E0,-7.740000248E0
4.127303786E1,5.958000183E0,9.289500713E-1,-7.740000248E0
4.129303786E1,5.997000217E0,9.289500713E-1,-7.702050209E0
4.131303786E1,6.034950256E0,8.899500370E-1,-7.702050209E0
4.133303786E1,6.073050499E0,9.289500713E-1,-7.740000248E0
