"Time (s)","Gyroscope x (rad/s)","Gyroscope y (rad/s)","Gyroscope z (rad/s)"
3.303786400E-2,1.033999994E-1,8.652874827E-1,3.355000168E-2
5.303786400E-2,-3.382499889E-2,-2.800875008E-1,1.757249981E-1
7.303786400E-2,-1.236125007E-1,-3.436124921E-1,1.281500012E-1
9.303786400E-2,-1.337874979E-1,-2.508000135E-1,7.012499869E-2
1.130378640E-1,-7.782500237E-2,-3.437499981E-3,7.975000143E-2
1.330378640E-1,-2.751374841E-1,-6.366249919E-2,-9.308750182E-2
1.530378640E-1,-3.570874929E-1,-2.343000025E-1,-7.755000144E-2
1.730378640E-1,-4.709374905E-1,-5.511000156E-1,4.757500067E-2
1.930378640E-1,-4.485250115E-1,-7.133499980E-1,3.392125070E-1
2.130378640E-1,-4.465999901E-1,-7.416750193E-1,3.825249970E-1
2.330378640E-1,-5.185124874E-1,-7.973625064E-1,2.785750031E-1
2.530378640E-1,-6.843374968E-1,-8.375124931E-1,-1.534499973E-1
2.730378640E-1,-7.290250063E-1,-8.566250205E-1,-2.557500005E-1
2.930378640E-1,-8.545625210E-1,-9.560375214E-1,-4.661250114E-1
3.130378640E-1,-8.604750037E-1,-1.151562452E0,-4.021874964E-1
3.330378640E-1,-8.546999693E-1,-1.261425018E0,-3.491125107E-1
3.530378640E-1,-8.570374846E-1,-1.413499951E0,-3.240875006E-1
3.730378640E-1,-8.084999919E-1,-1.262387514E0,-4.016374946E-1
3.930378640E-1,-8.060249686E-1,-1.196524978E0,-4.545750022E-1
4.130378640E-1,-8.663874865E-1,-1.106737494E0,-6.312624812E-1
4.330378640E-1,-1.081987500E0,-1.017225027E0,-9.715750217E-1
4.530378640E-1,-1.136849999E0,-9.985250235E-1,-1.037437439E0
4.730378640E-1,-1.038812518E0,-1.000174999E0,-9.301875234E-1
4.930378640E-1,-8.188124895E-1,-9.791374803E-1,-6.941000223E-1
5.130378640E-1,-7.880125046E-1,-9.644249678E-1,-6.540874839E-1
5.330378640E-1,-7.136250138E-1,-8.857749701E-1,-5.636125207E-1
5.530378640E-1,-6.892874837E-1,-7.154124975E-1,-4.852375090E-1
5.730378640E-1,-6.687999964E-1,-6.627500057E-1,-4.485250115E-1
5.930378640E-1,-5.927624702E-1,-5.956500173E-1,-3.420999944E-1
6.130378640E-1,-4.358749986E-1,-6.613749862E-1,-1.185249984E-1
6.330378640E-1,-3.777124882E-1,-7.075750232E-1,-3.327500075E-2
6.530378640E-1,-2.591874897E-1,-6.733375192E-1,1.440999955E-1
6.730378640E-1,-1.287000030E-1,-5.842375159E-1,3.569499850E-1
6.930378640E-1,-8.511249721E-2,-5.836874843E-1,4.203374982E-1
7.130378640E-1,1.099999994E-3,-5.798375010E-1,5.403749943E-1
7.330378640E-1,9.116250277E-2,-6.386874914E-1,6.930000186E-1
7.530378640E-1,1.111000031E-1,-6.884624958E-1,7.385125160E-1
7.730378640E-1,1.399749964E-1,-7.768750191E-1,8.218374848E-1
7.930378640E-1,1.703625023E-1,-8.967750072E-1,9.524624944E-1
8.130378640E-1,1.768250018E-1,-9.310125113E-1,9.948124886E-1
8.330378640E-1,1.802625060E-1,-9.570000172E-1,1.066174984E0
8.530378640E-1,2.344374955E-1,-1.053799987E0,1.189924955E0
8.730378640E-1,2.697750032E-1,-1.129837513E0,1.243549943E0
8.930378640E-1,3.668499887E-1,-1.373212457E0,1.376924992E0
9.130378640E-1,6.315374970E-1,-1.750237465E0,1.654399991E0
9.330378640E-1,7.499250174E-1,-1.842224956E0,1.761649966E0
9.530378640E-1,9.922000170E-1,-1.987424970E0,1.969274998E0
9.730378640E-1,1.354237437E0,-2.086562395E0,2.198899984E0
9.930378640E-1,1.474962473E0,-2.094675064E0,2.250600100E0
1.013037864E0,1.665262461E0,-2.070749998E0,2.310412407E0
1.033037864E0,1.758900046E0,-1.854462504E0,2.243037462E0
1.053037864E0,1.757524967E0,-1.757249951E0,2.192437410E0
1.073037864E0,1.719025016E0,-1.547562480E0,2.036237478E0
1.093037864E0,1.652337432E0,-1.441825032E0,1.907124996E0
1.113037864E0,1.603525043E0,-1.384762526E0,1.828887463E0
1.133037864E0,1.305425048E0,-1.107149959E0,1.505900025E0
1.153037864E0,1.184287548E0,-1.014337540E0,1.391499996E0
1.173037864E0,1.004712462E0,-9.520499706E-1,1.213024974E0
1.193037864E0,8.456249833E-1,-1.050225019E0,1.034962535E0
1.213037864E0,7.932375073E-1,-1.066725016E0,9.725375175E-1
1.233037864E0,7.964000106E-1,-1.241899967E0,9.164375067E-1
1.253037864E0,9.787250161E-1,-1.681349993E0,9.165750146E-1
1.273037864E0,1.043624997E0,-1.789425015E0,8.933374882E-1
1.293037864E0,1.130112529E0,-1.921837449E0,8.100125194E-1
1.313037864E0,1.063424945E0,-1.855562449E0,6.320874691E-1
1.333037864E0,1.088999987E0,-1.822700024E0,5.494499803E-1
1.353037864E0,1.271324992E0,-1.797537446E0,3.283500075E-1
1.373037864E0,1.564062476E0,-1.800287485E0,1.209999993E-2
1.393037864E0,1.649037480E0,-1.815687537E0,-7.108750194E-2
1.413037864E0,1.776912451E0,-1.854599953E0,-2.037750036E-1
1.433037864E0,1.759449959E0,-1.856662512E0,-2.238499969E-1
1.453037864E0,1.650274992E0,-1.777600050E0,-1.931875050E-1
1.473037864E0,1.150737524E0,-1.325912476E0,-1.694000065E-1
1.493037864E0,-5.526124835E-1,2.204124928E-1,1.924999990E-3
1.513037864E0,-5.893250108E-1,2.468124926E-1,-7.974999957E-3
1.533037864E0,-6.612374783E-1,2.046000063E-1,8.112499863E-2
1.553037864E0,-5.704874992E-1,-5.110874772E-1,7.642250061E-1
1.573037864E0,-5.995000005E-1,-5.570124984E-1,8.111125231E-1
1.593037864E0,-7.408499718E-1,-6.308500171E-1,1.006775022E0
1.613037864E0,-1.103299975E0,-4.200625122E-1,1.152524948E0
1.633037864E0,-1.182500005E0,-3.298625052E-1,1.143037438E0
1.653037864E0,-1.244512439E0,-1.827374995E-1,1.074424982E0
1.673037864E0,-1.313812494E0,1.971749961E-1,8.794500232E-1
1.693037864E0,-1.348325014E0,2.943874896E-1,8.831624985E-1
1.713037864E0,-1.219487548E0,-1.016125008E-1,1.171087503E0
1.733037864E0,-2.481874973E-1,-1.715862513E0,1.555400014E0
1.753037864E0,-2.528625131E-1,-1.701012492E0,1.680524945E0
1.773037864E0,-1.303499937E-1,-2.023312569E0,2.123825073E0
1.793037864E0,3.059374988E-1,-2.170574903E0,2.007912397E0
1.813037864E0,3.096500039E-1,-2.005437374E0,1.985499978E0
1.833037864E0,2.799499929E-1,-1.596512437E0,1.887462497E0
1.853037864E0,1.828749925E-1,-1.014337540E0,1.914549947E0
1.873037864E0,2.004749924E-1,-9.444875121E-1,1.926237464E0
1.893037864E0,2.637250125E-1,-9.392625093E-1,1.936962485E0
1.913037864E0,3.455374837E-1,-9.348624945E-1,1.827237487E0
1.933037864E0,3.590124846E-1,-8.824750185E-1,1.760550022E0
1.953037864E0,4.017750025E-1,-8.005250096E-1,1.545637488E0
1.973037864E0,4.489375055E-1,-5.700749755E-1,1.140837550E0
1.993037864E0,4.545750022E-1,-4.456374943E-1,1.007874966E0
2.013037864E0,4.343625009E-1,2.699125111E-1,8.692749739E-1
2.033037864E0,4.003999829E-1,8.849499822E-1,7.950249910E-1
2.053037864E0,3.819749951E-1,7.953000069E-1,7.693125010E-1
2.073037864E0,3.147374988E-1,5.703499913E-1,8.612999916E-1
2.093037864E0,2.813250124E-1,2.404875010E-1,9.663500190E-1
2.113037864E0,2.849000096E-1,7.686249912E-2,9.889000058E-1
2.133037864E0,3.091000021E-1,-7.081250101E-2,1.127912521E0
2.153037864E0,2.892999947E-1,-1.414874941E-1,1.689737439E0
2.173037864E0,2.865499854E-1,-2.486000061E-1,1.831637502E0
2.193037864E0,3.383874893E-1,-5.641624928E-1,2.018087387E0
2.213037864E0,3.638249934E-1,-6.590374708E-1,2.016849995E0
2.233037864E0,4.163500071E-1,-8.597875237E-1,1.910974979E0
2.253037864E0,4.855124950E-1,-9.655249715E-1,1.754637480E0
2.273037864E0,5.273125172E-1,-8.769749999E-1,1.789700031E0
2.293037864E0,6.199874878E-1,-3.536500037E-1,2.576200008E0
2.313037864E0,4.435749948E-1,-4.461874962E-1,3.180375099E0
2.333037864E0,3.726249933E-1,-5.347374678E-1,3.252562523E0
2.353037864E0,2.869625092E-1,-7.303999662E-1,3.025687456E0
2.373037864E0,2.263250053E-1,-9.442124963E-1,2.280575037E0
2.393037864E0,2.257750034E-1,-9.521874785E-1,2.053425074E0
2.413037864E0,2.550624907E-1,-8.934749961E-1,1.672137499E0
2.433037864E0,1.740749925E-1,-8.461750150E-1,1.202437520E0
2.453037864E0,1.355749965E-1,-8.258249760E-1,1.071400046E0
2.473037864E0,7.383749634E-2,-7.720624804E-1,8.833000064E-1
2.493037864E0,2.708750032E-2,-6.610999703E-1,7.997000217E-1
2.513037864E0,3.148749843E-2,-6.114624739E-1,7.426375151E-1
2.533037864E0,4.991250113E-2,-4.822124839E-1,5.950999856E-1
2.553037864E0,1.486375034E-1,-2.491499931E-1,6.352499872E-2
2.573037864E0,1.192125008E-1,-2.481874973E-1,-1.024374962E-1
2.593037864E0,1.031249948E-2,-2.391124964E-1,-2.041874975E-1
2.613037864E0,-3.946249932E-2,-2.873750031E-2,-1.282874942E-1
2.633037864E0,-7.809999585E-2,7.287499961E-3,-1.072499976E-1
2.653037864E0,-1.068374962E-1,9.666249901E-2,2.914999984E-2
2.673037864E0,-2.859999985E-2,3.079999983E-1,2.771999836E-1
2.693037864E0,-9.074999951E-3,3.704249859E-1,3.137750030E-1
2.713037864E0,-1.361249946E-2,4.630999863E-1,3.095124960E-1
2.733037864E0,-1.325500011E-1,5.079249740E-1,2.278375030E-1
2.753037864E0,-2.506625056E-1,4.465999901E-1,2.074874938E-1
2.773037864E0,-4.655750096E-1,3.229874969E-1,1.727000028E-1
2.793037864E0,-4.217124879E-1,4.874374866E-1,1.181124970E-1
2.813037864E0,-3.676750064E-1,5.820375085E-1,9.432499856E-2
2.833037864E0,-2.715624869E-1,7.530875206E-1,3.561250120E-2
2.853037864E0,-2.219250053E-1,9.293624759E-1,-5.321250111E-2
2.873037864E0,-2.501125038E-1,9.365124702E-1,-8.964999765E-2
2.893037864E0,-3.955875039E-1,8.468624949E-1,-1.709125042E-1
2.913037864E0,-5.479375124E-1,7.378249764E-1,-3.125374913E-1
2.933037864E0,-5.539875031E-1,7.298499942E-1,-3.683624864E-1
2.953037864E0,-5.997750163E-1,6.481750011E-1,-4.943124950E-1
2.973037864E0,-6.785625219E-1,4.828999937E-1,-6.516125202E-1
2.993037864E0,-7.048249841E-1,4.300999939E-1,-6.803500056E-1
3.013037864E0,-7.512999773E-1,3.425124884E-1,-7.182999849E-1
3.033037864E0,-8.380625248E-1,1.956624985E-1,-7.493749857E-1
3.053037864E0,-8.619874716E-1,1.509750038E-1,-7.447000146E-1
3.073037864E0,-8.908625245E-1,9.198749810E-2,-7.170624733E-1
3.093037864E0,-8.416374922E-1,1.082125008E-1,-6.531249881E-1
3.113037864E0,-8.234875202E-1,1.137124971E-1,-6.364874840E-1
3.133037864E0,-7.618874907E-1,1.623875052E-1,-6.324999928E-1
3.153037864E0,-6.410250068E-1,2.825624943E-1,-5.986750126E-1
3.173037864E0,-6.665999889E-1,2.531374991E-1,-5.603125095E-1
3.193037864E0,-7.134875059E-1,1.977249980E-1,-4.039750099E-1
3.213037864E0,-6.998749971E-1,1.989624947E-1,-2.211000025E-1
3.233037864E0,-6.810374856E-1,2.157374918E-1,-1.773750037E-1
3.253037864E0,-6.632999778E-1,2.289374918E-1,-1.627999991E-1
3.273037864E0,-5.882250071E-1,3.113000095E-1,-1.412124932E-1
3.293037864E0,-5.747500062E-1,3.212000132E-1,-2.120250016E-1
3.313037864E0,-5.567374825E-1,2.941125035E-1,-4.954124987E-1
3.333037864E0,-5.550875068E-1,2.748624980E-1,-5.202999711E-1
3.353037864E0,-5.442249775E-1,2.455749959E-1,-5.065500140E-1
3.373037864E0,-6.599999666E-1,2.309999987E-2,-5.084750056E-1
3.393037864E0,-7.282000184E-1,-9.047500044E-2,-4.988499880E-1
3.413037864E0,-7.414000034E-1,-1.533125043E-1,-4.398624897E-1
3.433037864E0,-7.599624991E-1,-2.211000025E-1,-4.555374980E-1
3.453037864E0,-7.968124747E-1,-2.732124925E-1,-4.851000011E-1
3.473037864E0,-9.312874675E-1,-4.681875110E-1,-4.710749984E-1
3.493037864E0,-1.132037520E0,-8.145499825E-1,-3.536500037E-1
3.513037864E0,-1.197899938E0,-9.294999838E-1,-3.665750027E-1
3.533037864E0,-1.281912446E0,-1.077175021E0,-4.151124954E-1
3.553037864E0,-1.341724992E0,-1.127087474E0,-4.894999862E-1
3.573037864E0,-1.367712498E0,-1.136437535E0,-5.373499990E-1
3.593037864E0,-1.446362495E0,-1.180575013E0,-6.648125052E-1
3.613037864E0,-1.530787468E0,-1.161599994E0,-8.637750149E-1
3.633037864E0,-1.547287464E0,-1.100962520E0,-9.685499668E-1
3.653037864E0,-1.524875045E0,-8.260999918E-1,-1.191162467E0
3.673037864E0,-1.423949957E0,-3.056625128E-1,-1.395349979E0
3.693037864E0,-1.376099944E0,-1.215500012E-1,-1.410887480E0
3.713037864E0,-1.292225003E0,2.205500007E-1,-1.410887480E0
3.733037864E0,-1.328799963E0,4.130499959E-1,-1.431924939E0
3.753037864E0,-1.364412546E0,4.311999977E-1,-1.450212479E0
3.773037864E0,-1.367849946E0,4.991250038E-1,-1.389850020E0
3.793037864E0,-1.316974998E0,4.675000012E-1,-1.213299990E0
3.813037864E0,-1.287687540E0,4.479750097E-1,-1.147712469E0
3.833037864E0,-1.190199971E0,4.662624896E-1,-9.710249901E-1
3.853037864E0,-1.039087534E0,4.556750059E-1,-6.887375116E-1
3.873037864E0,-1.007462502E0,4.274874926E-1,-6.263124943E-1
3.893037864E0,-9.998999834E-1,3.291749954E-1,-5.909749866E-1
3.913037864E0,-1.063837528E0,1.815000027E-1,-6.777374744E-1
3.933037864E0,-1.086662531E0,1.128875017E-1,-7.247624993E-1
3.953037864E0,-1.111412525E0,-7.149999961E-3,-7.888374925E-1
3.973037864E0,-1.070850015E0,-7.287499961E-3,-7.170624733E-1
3.993037864E0,-1.055724978E0,4.619999975E-2,-6.883249879E-1
4.013037864E0,-1.063699961E0,8.607500046E-2,-7.030375004E-1
4.033037864E0,-1.145375013E0,1.216875017E-1,-9.565874934E-1
4.053037864E0,-1.176587462E0,1.766874939E-1,-1.055587530E0
4.073037864E0,-1.223062515E0,2.160124928E-1,-1.229524970E0
4.093037864E0,-1.193637490E0,1.992374957E-1,-1.278612494E0
4.113037864E0,-1.127362490E0,1.314499974E-1,-1.235712528E0
4.133037864E0,-1.085012436E0,6.036249921E-2,-1.235025048E0
4.153037864E0,-9.147874713E-1,-2.997500002E-1,-1.281774998E0
4.173037864E0,-8.498874903E-1,-4.024625123E-1,-1.274212480E0
4.193037864E0,-7.077124715E-1,-5.685625076E-1,-1.231037498E0
4.213037864E0,-5.457375050E-1,-6.810374856E-1,-1.177549958E0
4.233037864E0,-5.234624743E-1,-6.313999891E-1,-1.132862449E0
4.253037864E0,-4.813874960E-1,-5.396875143E-1,-1.048987508E0
4.273037864E0,-3.436124921E-1,-5.966125131E-1,-9.215250015E-1
4.293037864E0,-2.806375027E-1,-6.883249879E-1,-9.079124928E-1
4.313037864E0,-1.724250019E-1,-9.413250089E-1,-9.822999835E-1
4.333037864E0,-1.293874979E-1,-1.219900012E0,-1.250837445E0
4.353037864E0,-1.212750003E-1,-1.182500005E0,-1.194599986E0
4.373037864E0,-1.343374997E-1,-9.138249755E-1,-8.509874940E-1
4.393037864E0,-1.234750003E-1,-8.280249834E-1,-7.111499906E-1
4.413037864E0,-9.886249900E-2,-7.567999959E-1,-5.665000081E-1
4.433037864E0,-1.222374961E-1,-9.046124816E-1,-8.120750189E-1
4.453037864E0,-1.561999917E-1,-1.010625005E0,-1.027675033E0
4.473037864E0,-1.806750000E-1,-1.216737509E0,-1.409374952E0
4.493037864E0,-1.548250020E-1,-1.150737524E0,-1.378712535E0
4.513037864E0,-1.427250057E-1,-1.070162535E0,-1.281087518E0
4.533037864E0,-1.051874980E-1,-8.762875199E-1,-1.027537465E0
4.553037864E0,-1.443750039E-2,-4.952749908E-1,-4.732750058E-1
4.573037864E0,5.362499878E-2,-2.802250087E-1,-1.251250058E-1
4.593037864E0,1.254000068E-1,3.231250122E-2,2.398000062E-1
4.613037864E0,1.247124970E-1,3.081375062E-1,3.760625124E-1
4.633037864E0,9.899999946E-2,4.071374834E-1,4.147000015E-1
4.653037864E0,3.767500073E-2,7.636749744E-1,6.811749935E-1
4.673037864E0,2.268750034E-2,1.372249961E0,1.282874942E0
4.693037864E0,8.249999955E-3,1.502187490E0,1.385312438E0
4.713037864E0,-3.836249933E-2,1.720537543E0,1.531062484E0
4.733037864E0,-1.215500012E-1,1.808125019E0,1.463687539E0
4.753037864E0,-1.413500011E-1,1.806612492E0,1.404012442E0
4.773037864E0,-1.762750000E-1,1.794924974E0,1.264037490E0
4.793037864E0,-1.841125041E-1,1.641749978E0,1.004712462E0
4.813037864E0,-1.782000065E-1,1.569562435E0,9.233124852E-1
4.833037864E0,-1.639000028E-1,1.418037534E0,7.834749818E-1
4.853037864E0,-1.225124970E-1,1.146474957E0,5.970249772E-1
4.873037864E0,-9.982500225E-2,1.043762445E0,5.443624854E-1
4.893037864E0,-4.358749837E-2,8.178499937E-1,4.538874924E-1
4.913037864E0,3.643750027E-2,5.126000047E-1,3.088249862E-1
4.933037864E0,7.328750193E-2,3.643749952E-1,2.279749960E-1
4.953037864E0,1.273249984E-1,1.449249983E-1,8.717499673E-2
4.973037864E0,1.880999953E-1,-1.017499994E-2,-7.328750193E-2
4.993037864E0,2.011625022E-1,-5.926249921E-2,-1.115124971E-1
5.013037864E0,2.029500008E-1,-1.358499974E-1,-1.559250057E-1
5.033037864E0,1.845249981E-1,-2.028124928E-1,-1.699499935E-1
5.053037864E0,1.771000028E-1,-2.220624983E-1,-1.691250056E-1
5.073037864E0,1.626625061E-1,-2.546499968E-1,-1.687124968E-1
5.093037864E0,1.270499974E-1,-2.371875048E-1,-1.535875052E-1
5.113037864E0,1.148125008E-1,-2.256374955E-1,-1.592250019E-1
5.133037864E0,9.707500041E-2,-1.960749924E-1,-1.674750000E-1
5.153037864E0,7.218749821E-2,-1.544124931E-1,-1.280124933E-1
5.173037864E0,6.036249921E-2,-1.420374960E-1,-1.149500012E-1
5.193037864E0,3.423750028E-2,-1.185249984E-1,-1.014750004E-1
5.213037864E0,-1.512499992E-3,-9.281250089E-2,-5.266249925E-2
5.233037864E0,-9.899999946E-3,-8.703749627E-2,-3.203750029E-2
5.253037864E0,-1.416249946E-2,-7.603749633E-2,-1.333750039E-2
5.273037864E0,-1.388750039E-2,-5.596249923E-2,-5.912499968E-3
5.293037864E0,-1.471249945E-2,-4.688749835E-2,-2.199999988E-3
5.313037864E0,-1.636249945E-2,-3.272499889E-2,2.199999988E-3
5.333037864E0,-2.419999987E-2,9.762499481E-3,2.103750035E-2
5.353037864E0,-2.557500079E-2,2.268750034E-2,2.612499893E-2
5.373037864E0,-2.268750034E-2,2.804999985E-2,2.241249941E-2
5.393037864E0,-1.443750039E-2,1.979999989E-2,-4.537499975E-3
5.413037864E0,-1.292499993E-2,1.732499897E-2,-1.251249947E-2
5.433037864E0,-1.374999993E-3,-4.124999978E-3,-4.317500070E-2
5.453037864E0,5.362499971E-3,-1.196249947E-2,-6.352499872E-2
5.473037864E0,8.799999952E-3,-2.282499894E-2,-7.081250101E-2
5.493037864E0,1.457499992E-2,-4.331250116E-2,-7.466249913E-2
5.513037864E0,1.498750038E-2,-4.606249928E-2,-7.232499868E-2
5.533037864E0,1.003750041E-2,-4.138749838E-2,-5.596249923E-2
5.553037864E0,-3.574999981E-3,-3.341250122E-2,-2.694999985E-2
5.573037864E0,-1.732499897E-2,-2.323750034E-2,1.099999994E-3
5.593037864E0,-3.135000169E-2,-1.787499990E-3,2.873750031E-2
5.613037864E0,-4.702499881E-2,5.843750015E-2,9.473749995E-2
5.633037864E0,-4.963750020E-2,7.672499865E-2,1.153625026E-1
5.653037864E0,-4.619999975E-2,9.171249717E-2,1.465750039E-1
5.673037864E0,-3.478749841E-2,9.844999760E-2,1.363999993E-1
5.693037864E0,-3.341250122E-2,9.872499853E-2,1.230624989E-1
5.713037864E0,-3.409999982E-2,9.886249900E-2,1.028499976E-1
5.733037864E0,-4.331250116E-2,1.093124971E-1,9.886249900E-2
5.753037864E0,-4.427500069E-2,1.099999994E-1,9.253749996E-2
5.773037864E0,-3.849999979E-2,1.020250022E-1,6.792499870E-2
5.793037864E0,-2.227500081E-2,8.318749815E-2,3.066249937E-2
5.813037864E0,-1.581249945E-2,7.796250284E-2,2.062499896E-2
5.833037864E0,4.674999975E-3,5.926249921E-2,-3.574999981E-3
5.853037864E0,2.791249938E-2,2.268750034E-2,-4.633750021E-2
5.873037864E0,2.612499893E-2,1.732499897E-2,-5.183750018E-2
5.893037864E0,1.801249944E-2,2.887499984E-3,-7.039999962E-2
5.913037864E0,7.149999961E-3,-1.292499993E-2,-9.226249903E-2
5.933037864E0,8.387500420E-3,-1.512499992E-2,-8.566249907E-2
5.953037864E0,1.484999992E-2,-1.306249946E-2,-7.287500054E-2
5.973037864E0,2.172499895E-2,-6.599999964E-3,-4.798749834E-2
5.993037864E0,3.148749843E-2,-4.812499974E-3,-3.629999980E-2
6.013037864E0,5.403750017E-2,2.337499987E-3,-2.901249938E-2
6.033037864E0,5.761250108E-2,3.726249933E-2,-3.121249937E-2
6.053037864E0,5.761250108E-2,3.726249933E-2,-3.121249937E-2
6.073037864E0,3.712499887E-2,7.315000147E-2,-6.737499963E-3
6.093037864E0,3.093750030E-2,7.864999771E-2,5.499999970E-3
6.113037864E0,2.034999989E-2,7.782500237E-2,3.684999794E-2
6.133037864E0,1.622499898E-2,5.733750015E-2,6.503749639E-2
6.153037864E0,1.801249944E-2,4.675000161E-2,6.489999592E-2
6.173037864E0,2.282499894E-2,2.832499892E-2,5.788749829E-2
6.193037864E0,1.141249947E-2,9.487500414E-3,4.344999790E-2
6.213037864E0,8.662499487E-3,1.924999990E-3,3.877500072E-2
6.233037864E0,-2.474999987E-3,-9.624999948E-4,3.629999980E-2
6.253037864E0,-3.176249936E-2,8.937500417E-3,-3.574999981E-3
6.273037864E0,-3.849999979E-2,9.349999949E-3,-9.212499484E-3
6.293037864E0,-5.499999970E-2,1.979999989E-2,1.209999993E-2
6.313037864E0,-7.287500054E-2,3.726249933E-2,3.024999984E-2
6.333037864E0,-7.301250100E-2,4.042499885E-2,2.447500080E-2
6.353037864E0,-6.627500057E-2,4.963750020E-2,-3.437499981E-3
6.373037864E0,-5.128749833E-2,4.578749835E-2,-7.548750192E-2
6.393037864E0,-4.895000160E-2,4.455000162E-2,-7.919999957E-2
6.413037864E0,-4.386249930E-2,3.547500074E-2,-6.819999963E-2
6.433037864E0,-3.712499887E-2,2.323750034E-2,-3.781250119E-2
6.453037864E0,-3.808749840E-2,2.337500080E-2,-2.708750032E-2
6.473037864E0,-4.276249930E-2,1.484999992E-2,8.387500420E-3
6.493037864E0,-3.616249934E-2,4.537499975E-3,7.493750006E-2
6.513037864E0,-3.643750027E-2,2.199999988E-3,8.731249720E-2
6.533037864E0,-3.327500075E-2,-3.437499981E-3,8.635000139E-2
6.553037864E0,-2.309999987E-2,-1.911249943E-2,6.902500242E-2
6.573037864E0,-6.599999964E-3,-3.602499887E-2,4.179999977E-2
6.593037864E0,1.017499994E-2,-3.863750026E-2,1.319999993E-2
6.613037864E0,1.429999992E-2,-1.993750036E-2,1.264999993E-2
6.633037864E0,1.773750037E-2,-9.349999949E-3,1.306249946E-2
6.653037864E0,1.237499993E-2,2.199999988E-2,2.048750035E-2
6.673037864E0,1.168750040E-2,5.046249926E-2,1.608750038E-2
6.693037864E0,1.869999990E-2,4.578749835E-2,-2.337499987E-3
6.713037864E0,2.447500080E-2,4.207500070E-2,-2.873750031E-2
6.733037864E0,2.997500077E-2,3.753750026E-2,-6.572499871E-2
6.753037864E0,2.818750031E-2,3.024999984E-2,-8.758749813E-2
6.773037864E0,1.897500083E-2,2.502499893E-2,-9.913749993E-2
6.793037864E0,2.337499987E-3,2.351249941E-2,-1.203124970E-1
6.813037864E0,-8.249999955E-3,2.241249941E-2,-1.282874942E-1
6.833037864E0,-7.974999957E-3,2.227500081E-2,-8.566249907E-2
6.853037864E0,-1.581249945E-2,2.722499892E-2,-3.877500072E-2
6.873037864E0,-8.112499490E-3,2.818750031E-2,-3.657500073E-2
6.893037864E0,1.787499990E-3,1.402499992E-2,-5.541250110E-2
6.913037864E0,-1.278750040E-2,1.264999993E-2,-5.678749830E-2
6.933037864E0,-1.924999990E-2,8.799999952E-3,-3.368749842E-2
6.953037864E0,-1.402499992E-2,9.349999949E-3,1.237499993E-3
6.973037864E0,-2.172499895E-2,2.502499893E-2,2.804999985E-2
6.993037864E0,-1.691249944E-2,4.138749838E-2,4.537500069E-2
7.013037864E0,-7.837500423E-3,6.613750011E-2,3.575000167E-2
7.033037864E0,1.567500085E-2,8.126249909E-2,6.063750014E-2
7.053037864E0,4.895000160E-2,6.819999963E-2,8.607500046E-2
7.073037864E0,4.578749835E-2,4.523750022E-2,1.773750037E-2
7.093037864E0,4.179999977E-2,3.808749840E-2,-3.987499978E-3
7.113037864E0,4.015000165E-2,2.186249942E-2,-2.021249942E-2
7.133037864E0,3.299999982E-2,2.516249940E-2,-2.612499986E-3
7.153037864E0,3.011249937E-2,2.199999988E-2,8.249999955E-4
7.173037864E0,2.089999989E-2,1.869999990E-2,1.374999993E-3
7.193037864E0,1.594999991E-2,-5.087499972E-3,-1.842499897E-2
7.213037864E0,9.487500414E-3,-1.773750037E-2,-2.804999985E-2
7.233037864E0,-5.224999972E-3,-4.166249931E-2,-2.873750031E-2
7.253037864E0,-2.337499987E-3,-1.027124971E-1,-3.629999980E-2
7.273037864E0,-8.249999955E-3,-1.157749966E-1,-4.235000163E-2
7.293037864E0,-3.066249937E-2,-1.016125008E-1,-3.575000167E-2
7.313037864E0,-4.936249927E-2,-6.682500243E-2,2.887500077E-2
7.333037864E0,-5.059999973E-2,-5.747500062E-2,4.001250118E-2
7.353037864E0,-4.881250113E-2,-3.464999795E-2,6.847500056E-2
7.373037864E0,-4.221250117E-2,-2.007500082E-2,1.040875018E-1
7.393037864E0,-4.015000165E-2,-1.718750037E-2,9.638749808E-2
7.413037864E0,-3.079999983E-2,-1.429999992E-2,7.617499679E-2
7.433037864E0,-1.471249945E-2,-9.899999946E-3,4.812499881E-2
7.453037864E0,-8.249999955E-3,-8.799999952E-3,3.671250120E-2
7.473037864E0,1.526249945E-2,-5.362499971E-3,-6.874999963E-4
7.493037864E0,3.684999794E-2,9.624999948E-4,-3.739999980E-2
7.513037864E0,3.547500074E-2,1.787499990E-3,-3.767500073E-2
7.533037864E0,2.584999986E-2,5.912499968E-3,-3.121249937E-2
7.553037864E0,1.031249948E-2,6.187499966E-3,-4.936249927E-2
7.573037864E0,6.462499965E-3,6.187499966E-3,-5.527500063E-2
7.593037864E0,4.124999978E-4,7.837500423E-3,-4.977500066E-2
7.613037864E0,1.182499994E-2,1.237499993E-2,-5.087500066E-2
7.633037864E0,2.736249939E-2,1.196249947E-2,-6.256250292E-2
7.653037864E0,3.162499890E-2,6.462499965E-3,-6.366249919E-2
7.673037864E0,3.024999984E-2,4.124999978E-3,-5.884999782E-2
7.693037864E0,2.983750030E-2,2.749999985E-4,-5.706249923E-2
7.713037864E0,2.653750032E-2,6.187499966E-3,-5.335000157E-2
7.733037864E0,2.309999987E-2,9.624999948E-3,-4.881250113E-2
7.753037864E0,2.007500082E-2,1.443750039E-2,-4.303750023E-2
7.773037864E0,2.516249940E-2,2.557500079E-2,-4.936249927E-2
7.793037864E0,3.451250121E-2,2.694999985E-2,-6.489999592E-2
7.813037864E0,3.643750027E-2,1.966249943E-2,-6.435000151E-2
7.833037864E0,3.382499889E-2,1.388750039E-2,-5.555000156E-2
7.853037864E0,3.781250119E-2,1.237499993E-3,-6.104999781E-2
7.873037864E0,2.969999984E-2,-1.787499990E-3,-5.156249925E-2
7.893037864E0,1.581249945E-2,2.062499989E-3,-3.629999980E-2
7.913037864E0,7.974999957E-3,3.162499983E-3,-3.492499888E-2
7.933037864E0,2.062499989E-3,6.599999964E-3,-3.244999796E-2
7.953037864E0,-4.812499974E-3,6.874999963E-3,-2.392499894E-2
7.973037864E0,-2.199999988E-2,1.127499994E-2,-1.141249947E-2
7.993037864E0,-3.492499888E-2,1.443750039E-2,5.637499969E-3
8.013037864E0,-3.575000167E-2,6.187499966E-3,2.062499896E-2
8.033037864E0,-3.822499886E-2,1.787499990E-3,3.368749842E-2
8.053037864E0,-3.698749840E-2,-1.154999994E-2,4.441250116E-2
8.073037864E0,-3.258749843E-2,-2.887500077E-2,5.004999787E-2
8.093037864E0,-3.464999795E-2,-3.176249936E-2,5.486249924E-2
8.113037864E0,-3.258749843E-2,-3.121249937E-2,5.211250111E-2
8.133037864E0,-3.038750030E-2,-2.736249939E-2,4.826249927E-2
8.153037864E0,-3.244999796E-2,-2.543750033E-2,5.224999785E-2
8.173037864E0,-3.629999980E-2,-2.172499895E-2,6.792499870E-2
8.193037864E0,-2.901249938E-2,-1.608750038E-2,7.287500054E-2
8.213037864E0,-2.406249940E-2,-1.278750040E-2,6.476250291E-2
8.233037864E0,-1.636249945E-2,-2.749999985E-3,4.303750023E-2
8.253037864E0,-3.987499978E-3,7.149999961E-3,1.966249943E-2
8.273037864E0,2.612499986E-3,1.512499992E-2,9.899999946E-3
8.293037864E0,1.099999994E-2,3.355000168E-2,-4.949999973E-3
8.313037864E0,1.099999994E-2,3.341250122E-2,-3.492499888E-2
8.333037864E0,8.799999952E-3,3.244999796E-2,-4.881250113E-2
8.353037864E0,1.787499990E-3,3.299999982E-2,-5.953750014E-2
8.373037864E0,-1.677500084E-2,2.529999986E-2,-2.323750034E-2
8.393037864E0,-1.814999990E-2,2.419999987E-2,-1.814999990E-2
8.413037864E0,-1.581249945E-2,1.952499896E-2,-2.378750034E-2
8.433037864E0,-8.799999952E-3,7.562499959E-3,-2.859999985E-2
8.453037864E0,-5.362499971E-3,2.199999988E-3,-2.749999985E-2
8.473037864E0,7.287499961E-3,-1.553750038E-2,-3.396249935E-2
8.493037864E0,7.699999958E-3,-2.749999985E-2,-2.983750030E-2
8.513037864E0,2.199999988E-3,-2.763750032E-2,-2.309999987E-2
8.533037864E0,-7.287499961E-3,-1.911249943E-2,-1.512499992E-2
8.553037864E0,-3.478749841E-2,-5.774999969E-3,4.276249930E-2
8.573037864E0,-4.647500068E-2,5.499999970E-3,6.861250103E-2
8.593037864E0,-6.544999778E-2,3.272499889E-2,1.023000032E-1
8.613037864E0,-6.407500058E-2,4.757500067E-2,1.157749966E-1
8.633037864E0,-6.063750014E-2,5.004999787E-2,1.072499976E-1
8.653037864E0,-5.211250111E-2,5.211250111E-2,8.552499861E-2
8.673037864E0,-4.702499881E-2,5.623750016E-2,7.301250100E-2
8.693037864E0,-4.922499880E-2,6.407500058E-2,5.651250109E-2
8.713037864E0,-5.568749830E-2,7.273750007E-2,4.317500070E-2
8.733037864E0,-5.775000155E-2,7.796250284E-2,4.592499882E-2
8.753037864E0,-4.757500067E-2,7.535000145E-2,4.069999978E-2
8.773037864E0,-3.066249937E-2,6.847500056E-2,2.186249942E-2
8.793037864E0,-1.649999991E-2,6.201250106E-2,3.299999982E-3
8.813037864E0,2.048750035E-2,5.376249924E-2,-4.826249927E-2
8.833037864E0,6.201250106E-2,4.839999974E-2,-1.031249985E-1
8.853037864E0,7.961250097E-2,3.987500072E-2,-1.236125007E-1
8.873037864E0,8.621250093E-2,2.144999988E-2,-1.237500012E-1
8.893037864E0,8.470000327E-2,-4.124999978E-4,-1.159124970E-1
8.913037864E0,8.689999580E-2,-2.928750031E-2,-1.032624990E-1
8.933037864E0,9.363749623E-2,-5.775000155E-2,-1.010624990E-1
8.953037864E0,9.171249717E-2,-6.696250290E-2,-9.803749621E-2
8.973037864E0,8.359999955E-2,-6.833750010E-2,-8.662500232E-2
8.993037864E0,7.246249914E-2,-5.788749829E-2,-6.270000339E-2
9.013037864E0,4.344999790E-2,-3.464999795E-2,-1.086249948E-2
9.033037864E0,3.671250120E-2,-3.231250122E-2,1.237499993E-3
9.053037864E0,2.474999987E-2,-3.176249936E-2,1.196249947E-2
9.073037864E0,8.937500417E-3,-3.822499886E-2,1.333750039E-2
9.093037864E0,8.524999954E-3,-4.716249928E-2,8.524999954E-3
9.113037864E0,1.182499994E-2,-6.888750196E-2,-6.187499966E-3
9.133037864E0,1.567500085E-2,-9.432499856E-2,-2.364999987E-2
9.153037864E0,2.557500079E-2,-1.473999918E-1,-3.451250121E-2
9.173037864E0,3.877500072E-2,-2.147749960E-1,-4.179999977E-2
9.193037864E0,1.137124971E-1,-3.521375060E-1,5.417500064E-2
9.213037864E0,1.410750002E-1,-3.940750062E-1,7.851249725E-2
9.233037864E0,1.615625024E-1,-4.320249856E-1,4.166249931E-2
9.253037864E0,1.453374922E-1,-4.019125104E-1,-2.598750032E-2
9.273037864E0,1.339250058E-1,-3.755125105E-1,-2.529999986E-2
9.293037864E0,9.762500226E-2,-2.979624867E-1,9.349999949E-3
9.313037864E0,3.781250119E-2,-1.277374923E-1,1.446499974E-1
9.333037864E0,3.258749843E-2,-8.799999952E-2,1.842499971E-1
9.353037864E0,3.478749841E-2,-5.362499878E-2,2.224749923E-1
9.373037864E0,3.107500076E-2,-9.349999949E-3,2.270125002E-1
9.393037864E0,2.516249940E-2,1.649999991E-2,2.211000025E-1
9.413037864E0,4.124999978E-4,8.607500046E-2,2.139499933E-1
9.433037864E0,-5.376249924E-2,2.182125002E-1,2.283875048E-1
9.453037864E0,-6.489999592E-2,2.436500043E-1,2.290749997E-1
9.473037864E0,-6.544999778E-2,2.255000025E-1,2.047374994E-1
9.493037864E0,-4.289999977E-2,1.720124930E-1,1.585374922E-1
9.513037864E0,-2.997500077E-2,1.607374996E-1,1.627999991E-1
9.533037864E0,2.062499896E-2,3.382499889E-2,1.201749966E-1
9.553037864E0,9.102500230E-2,-1.805374920E-1,7.149999961E-3
9.573037864E0,9.941250086E-2,-2.056999952E-1,-5.087499972E-3
9.593037864E0,1.049124971E-1,-2.143625021E-1,2.337499987E-3
9.613037864E0,9.817499667E-2,-1.958000064E-1,1.979999989E-2
9.633037864E0,8.676250279E-2,-1.849374920E-1,2.598750032E-2
9.653037864E0,6.462500244E-2,-1.637624949E-1,2.777500078E-2
9.673037864E0,4.826249927E-2,-1.533125043E-1,2.007500082E-2
9.693037864E0,4.468749836E-2,-1.489125043E-1,2.076249942E-2
9.713037864E0,3.698749840E-2,-1.199000031E-1,3.533750027E-2
9.733037864E0,2.241249941E-2,-8.470000327E-2,6.696250290E-2
9.753037864E0,8.249999955E-4,-5.967500061E-2,9.088750184E-2
9.773037864E0,-1.677500084E-2,-1.099999994E-2,1.049124971E-1
9.793037864E0,-1.594999991E-2,7.149999961E-3,9.707500041E-2
9.813037864E0,-8.799999952E-3,-1.374999993E-4,8.249999583E-2
9.833037864E0,-3.574999981E-3,-8.249999955E-3,6.228749827E-2
9.853037864E0,-8.249999955E-4,-4.056249931E-2,4.331250116E-2
9.873037864E0,8.524999954E-3,-1.179749966E-1,1.828750037E-2
9.893037864E0,2.227500081E-2,-1.722874939E-1,-1.127499994E-2
9.913037864E0,3.959999979E-2,-1.959374994E-1,-4.757500067E-2
9.933037864E0,6.407500058E-2,-2.054249942E-1,-1.097249985E-1
9.953037864E0,8.593750000E-2,-2.169750035E-1,-1.940124929E-1
9.973037864E0,9.597499669E-2,-2.359499931E-1,-2.558875084E-1
9.993037864E0,1.006499976E-1,-2.454375029E-1,-2.780250013E-1
1.001303786E1,9.927500039E-2,-2.389750034E-1,-2.761000097E-1
1.003303786E1,8.717499673E-2,-2.167000026E-1,-2.569875121E-1
1.005303786E1,7.699999958E-2,-1.792999953E-1,-2.399374992E-1
1.007303786E1,7.301250100E-2,-1.343374997E-1,-2.268749923E-1
1.009303786E1,7.012499869E-2,-9.597499669E-2,-2.142249942E-1
1.011303786E1,5.087500066E-2,-1.732499897E-2,-1.739374995E-1
1.013303786E1,2.901249938E-2,5.733750015E-2,-1.302125007E-1
1.015303786E1,1.237499993E-2,9.088750184E-2,-9.583749622E-2
1.017303786E1,-4.674999975E-3,1.055999994E-1,-6.435000151E-2
1.019303786E1,-1.869999990E-2,1.094499975E-1,-4.056249931E-2
1.021303786E1,-3.038750030E-2,1.020250022E-1,-2.158750035E-2
1.023303786E1,-4.248749837E-2,9.322500229E-2,-1.058750041E-2
1.025303786E1,-6.256250292E-2,8.538749814E-2,-2.749999985E-4
1.027303786E1,-6.503749639E-2,8.373750001E-2,-0.000000000E0
1.029303786E1,-6.943749636E-2,7.988750190E-2,3.437499981E-3
1.031303786E1,-7.315000147E-2,6.861250103E-2,6.599999964E-3
1.033303786E1,-7.191249728E-2,6.201250106E-2,6.737499963E-3
1.035303786E1,-6.435000151E-2,4.908749834E-2,5.087499972E-3
1.037303786E1,-3.629999980E-2,3.464999795E-2,-2.461249940E-2
1.039303786E1,-2.749999985E-2,2.722499892E-2,-3.561250120E-2
1.041303786E1,-1.746249944E-2,1.251249947E-2,-4.262499884E-2
1.043303786E1,-1.924999990E-2,-5.224999972E-3,-2.254999988E-2
1.045303786E1,-2.172499895E-2,-7.699999958E-3,-1.182499994E-2
1.047303786E1,-1.801249944E-2,-1.498750038E-2,-8.524999954E-3
1.049303786E1,-1.787499990E-3,-2.323750034E-2,-3.024999984E-3
1.051303786E1,3.712499980E-3,-2.529999986E-2,-4.124999978E-3
1.053303786E1,1.113750041E-2,-3.093750030E-2,-1.526249945E-2
1.055303786E1,1.471249945E-2,-3.657500073E-2,-2.241249941E-2
1.057303786E1,1.086249948E-2,-3.533750027E-2,-1.608750038E-2
1.059303786E1,-9.624999948E-4,-2.997500077E-2,3.162499983E-3
1.061303786E1,-1.003750041E-2,-2.241249941E-2,1.759999990E-2
1.063303786E1,-1.526249945E-2,-1.966249943E-2,2.777500078E-2
1.065303786E1,-2.694999985E-2,-1.567500085E-2,4.963750020E-2
1.067303786E1,-1.127499994E-2,-6.599999964E-3,4.015000165E-2
1.069303786E1,-2.474999987E-3,-4.124999978E-3,3.052499890E-2
1.071303786E1,6.737499963E-3,-1.099999994E-3,1.196249947E-2
1.073303786E1,1.141249947E-2,-1.374999993E-4,-3.437499981E-3
1.075303786E1,1.168750040E-2,-1.649999991E-3,-5.362499971E-3
1.077303786E1,7.974999957E-3,-5.499999970E-3,-1.374999993E-3
1.079303786E1,4.812499974E-3,-4.537499975E-3,2.062499989E-3
1.081303786E1,1.196249947E-2,-1.182499994E-2,1.113750041E-2
1.083303786E1,2.227500081E-2,-1.677500084E-2,1.127499994E-2
1.085303786E1,3.698749840E-2,-2.076249942E-2,-0.000000000E0
1.087303786E1,4.743750021E-2,-2.213750035E-2,-1.498750038E-2
1.089303786E1,5.816249922E-2,-2.419999987E-2,-4.001250118E-2
1.091303786E1,7.342500240E-2,-2.777500078E-2,-7.672499865E-2
1.093303786E1,8.579999954E-2,-2.956249937E-2,-1.054624990E-1
1.095303786E1,8.827500045E-2,-3.492499888E-2,-1.161874980E-1
1.097303786E1,8.112499863E-2,-4.028749838E-2,-1.084875017E-1
1.099303786E1,7.163749635E-2,-3.863750026E-2,-9.157499671E-2
1.101303786E1,6.379999965E-2,-3.176249936E-2,-7.851249725E-2
1.103303786E1,5.335000157E-2,-2.571249940E-2,-7.122500241E-2
1.105303786E1,4.276249930E-2,-2.254999988E-2,-5.981250107E-2
1.107303786E1,2.144999988E-2,-2.543750033E-2,-5.981250107E-2
1.109303786E1,1.374999993E-2,-2.584999986E-2,-6.379999965E-2
1.111303786E1,4.674999975E-3,-2.639999986E-2,-6.256250292E-2
1.113303786E1,-8.387500420E-3,-2.282499894E-2,-4.262499884E-2
1.115303786E1,-1.691249944E-2,-1.869999990E-2,-1.938750036E-2
1.117303786E1,-2.364999987E-2,-1.347499993E-2,-1.099999994E-3
1.119303786E1,-3.629999980E-2,-8.524999954E-3,2.846249938E-2
1.121303786E1,-4.482499883E-2,2.749999985E-4,5.197500065E-2
1.123303786E1,-4.207500070E-2,2.337499987E-3,5.389999971E-2
1.125303786E1,-3.313750029E-2,1.374999993E-4,4.743750021E-2
1.127303786E1,-2.172499895E-2,-9.624999948E-4,3.959999979E-2
1.129303786E1,4.537499975E-3,-9.624999948E-4,5.224999972E-3
1.131303786E1,1.154999994E-2,-9.624999948E-4,2.887499984E-3
1.133303786E1,7.699999958E-3,-6.874999963E-4,1.347499993E-2
1.135303786E1,1.374999993E-4,-9.624999948E-4,2.639999986E-2
1.137303786E1,-2.488750033E-2,-2.612499986E-3,6.517499685E-2
1.139303786E1,-3.643750027E-2,-4.124999978E-3,8.387500048E-2
1.141303786E1,-4.702499881E-2,-6.049999967E-3,9.996250272E-2
1.143303786E1,-4.303750023E-2,-4.537499975E-3,8.855000138E-2
1.145303786E1,-4.413750023E-2,-4.399999976E-3,8.923749626E-2
1.147303786E1,-5.486249924E-2,-4.674999975E-3,1.055999994E-1
1.149303786E1,-7.507500052E-2,-4.124999978E-3,1.343374997E-1
1.151303786E1,-8.030000329E-2,-4.262499977E-3,1.420374960E-1
1.153303786E1,-8.937499672E-2,-2.887499984E-3,1.548250020E-1
1.155303786E1,-8.387500048E-2,-3.299999982E-3,1.457500011E-1
1.157303786E1,-7.919999957E-2,-4.262499977E-3,1.376374960E-1
1.159303786E1,-6.998749822E-2,-4.537499975E-3,1.222374961E-1
1.161303786E1,-5.348749831E-2,-1.017499994E-2,9.721250087E-2
1.163303786E1,-4.578749835E-2,-1.182499994E-2,8.401250094E-2
1.165303786E1,-2.846249938E-2,-1.278750040E-2,5.376249924E-2
1.167303786E1,-8.524999954E-3,-1.251249947E-2,1.924999990E-2
1.169303786E1,-1.512499992E-3,-1.251249947E-2,7.562499959E-3
1.171303786E1,1.361249946E-2,-9.624999948E-3,-1.787500083E-2
1.173303786E1,3.451250121E-2,-5.774999969E-3,-5.843750015E-2
1.175303786E1,3.849999979E-2,-5.362499971E-3,-6.627500057E-2
1.177303786E1,4.276249930E-2,-4.124999978E-3,-7.548750192E-2
1.179303786E1,4.743750021E-2,-1.099999994E-3,-9.542500228E-2
1.181303786E1,4.991250113E-2,-4.124999978E-4,-9.927500039E-2
1.183303786E1,5.307500064E-2,8.249999955E-4,-1.027124971E-1
1.185303786E1,4.688749835E-2,1.924999990E-3,-8.937499672E-2
1.187303786E1,4.193750024E-2,1.787499990E-3,-8.002500236E-2
1.189303786E1,3.299999982E-2,3.712499980E-3,-6.297499686E-2
1.191303786E1,2.914999984E-2,6.737499963E-3,-5.582499877E-2
1.193303786E1,2.846249938E-2,6.737499963E-3,-5.403750017E-2
1.195303786E1,2.474999987E-2,4.262499977E-3,-5.279999971E-2
1.197303786E1,1.883750036E-2,2.612499986E-3,-4.289999977E-2
1.199303786E1,1.443750039E-2,-2.062499989E-3,-3.093750030E-2
1.201303786E1,1.223750040E-2,-6.874999963E-3,-2.626249939E-2
1.203303786E1,9.487500414E-3,-8.112499490E-3,-2.103750035E-2
1.205303786E1,7.424999960E-3,-8.387500420E-3,-1.938750036E-2
1.207303786E1,8.249999955E-3,-9.074999951E-3,-2.804999985E-2
1.209303786E1,1.209999993E-2,-8.937500417E-3,-4.509999976E-2
1.211303786E1,1.306249946E-2,-7.974999957E-3,-5.541250110E-2
1.213303786E1,2.529999986E-2,-6.324999966E-3,-8.249999583E-2
1.215303786E1,3.396249935E-2,-5.774999969E-3,-9.432499856E-2
1.217303786E1,2.942499891E-2,-5.774999969E-3,-8.538749814E-2
1.219303786E1,2.708750032E-2,-7.149999961E-3,-7.741250098E-2
1.221303786E1,2.323750034E-2,-6.462499965E-3,-6.957499683E-2
1.223303786E1,2.254999988E-2,-7.562499959E-3,-6.696250290E-2
1.225303786E1,2.419999987E-2,-9.212499484E-3,-6.517499685E-2
1.227303786E1,1.924999990E-2,-8.524999954E-3,-5.142499879E-2
1.229303786E1,1.553750038E-2,-6.737499963E-3,-4.152499884E-2
1.231303786E1,4.399999976E-3,-5.499999970E-3,-1.897500083E-2
1.233303786E1,-1.251249947E-2,-6.049999967E-3,1.278750040E-2
1.235303786E1,-2.777500078E-2,-4.262499977E-3,4.221250117E-2
1.237303786E1,-4.235000163E-2,-6.049999967E-3,7.315000147E-2
1.239303786E1,-4.399999976E-2,-6.049999967E-3,7.851249725E-2
1.241303786E1,-4.399999976E-2,-5.637499969E-3,8.195000142E-2
1.243303786E1,-4.895000160E-2,-3.299999982E-3,9.982500225E-2
1.245303786E1,-4.936249927E-2,-1.649999991E-3,1.031249985E-1
1.247303786E1,-4.661250114E-2,3.162499983E-3,9.624999762E-2
1.249303786E1,-4.166249931E-2,4.262499977E-3,8.415000141E-2
1.251303786E1,-3.932499886E-2,4.674999975E-3,7.933750004E-2
1.253303786E1,-3.382499889E-2,2.749999985E-3,6.833750010E-2
1.255303786E1,-2.406249940E-2,1.374999993E-4,5.224999785E-2
1.257303786E1,-1.966249943E-2,1.374999993E-4,4.647500068E-2
1.259303786E1,-1.787499990E-3,2.749999985E-4,1.828750037E-2
1.261303786E1,2.213750035E-2,1.237499993E-3,-2.873750031E-2
1.263303786E1,2.474999987E-2,-1.374999993E-4,-3.712499887E-2
1.265303786E1,2.997500077E-2,-9.624999948E-4,-4.963750020E-2
1.267303786E1,4.592499882E-2,5.499999970E-4,-8.676250279E-2
1.269303786E1,4.564999789E-2,2.749999985E-4,-8.910000324E-2
1.271303786E1,3.684999794E-2,4.124999978E-4,-7.864999771E-2
1.273303786E1,3.162499890E-2,1.924999990E-3,-6.916250288E-2
1.275303786E1,3.135000169E-2,2.474999987E-3,-6.888750196E-2
1.277303786E1,2.901249938E-2,4.262499977E-3,-6.352499872E-2
1.279303786E1,1.938750036E-2,7.837500423E-3,-4.784999788E-2
1.281303786E1,1.471249945E-2,7.424999960E-3,-3.987500072E-2
1.283303786E1,1.086249948E-2,7.149999961E-3,-3.959999979E-2
1.285303786E1,-4.399999976E-3,7.149999961E-3,-8.524999954E-3
1.287303786E1,-1.319999993E-2,7.012499962E-3,9.349999949E-3
1.289303786E1,-2.406249940E-2,6.737499963E-3,2.942499891E-2
1.291303786E1,-2.873750031E-2,5.774999969E-3,4.042499885E-2
1.293303786E1,-2.928750031E-2,5.087499972E-3,4.262499884E-2
1.295303786E1,-2.543750033E-2,4.399999976E-3,3.946249932E-2
1.297303786E1,-1.787500083E-2,1.787499990E-3,3.437500075E-2
1.299303786E1,-6.187499966E-3,6.874999963E-4,1.787500083E-2
1.301303786E1,5.224999972E-3,-3.849999979E-3,-2.337499987E-3
1.303303786E1,1.993750036E-2,-1.017499994E-2,-2.694999985E-2
1.305303786E1,2.571249940E-2,-1.127499994E-2,-3.822499886E-2
1.307303786E1,2.873750031E-2,-1.127499994E-2,-4.386249930E-2
1.309303786E1,2.997500077E-2,-1.086249948E-2,-4.757500067E-2
1.311303786E1,3.492499888E-2,-6.324999966E-3,-5.555000156E-2
1.313303786E1,4.276249930E-2,-3.849999979E-3,-6.503749639E-2
1.315303786E1,4.661250114E-2,-1.374999993E-3,-6.943749636E-2
1.317303786E1,4.509999976E-2,0.000000000E0,-6.806249917E-2
1.319303786E1,4.317500070E-2,9.624999948E-4,-6.613750011E-2
1.321303786E1,3.808749840E-2,9.624999948E-4,-5.898749828E-2
1.323303786E1,3.409999982E-2,3.437499981E-3,-5.362499878E-2
1.325303786E1,2.681249939E-2,3.437499981E-3,-4.028749838E-2
1.327303786E1,1.869999990E-2,5.637499969E-3,-2.199999988E-2
1.329303786E1,1.196249947E-2,7.974999957E-3,-5.637499969E-3
1.331303786E1,1.374999993E-4,8.662499487E-3,1.746249944E-2
1.333303786E1,-1.072499994E-2,7.012499962E-3,3.355000168E-2
1.335303786E1,-1.924999990E-2,2.062499989E-3,4.564999789E-2
1.337303786E1,-2.254999988E-2,1.374999993E-4,4.977500066E-2
1.339303786E1,-1.636249945E-2,-3.712499980E-3,3.671250120E-2
1.341303786E1,-6.599999964E-3,-9.487500414E-3,1.787500083E-2
1.343303786E1,4.124999978E-4,-7.012499962E-3,4.674999975E-3
1.345303786E1,0.000000000E0,0.000000000E0,0.000000000E0
1.347303786E1,6.462499965E-3,-5.087499972E-3,-7.287499961E-3
1.349303786E1,3.574999981E-3,-6.324999966E-3,-4.399999976E-3
1.351303786E1,0.000000000E0,-6.599999964E-3,-2.062499989E-3
1.353303786E1,-4.262499977E-3,-7.012499962E-3,-1.924999990E-3
1.355303786E1,1.787499990E-3,-5.499999970E-3,-9.349999949E-3
1.357303786E1,5.224999972E-3,-4.262499977E-3,-1.388750039E-2
1.359303786E1,1.251249947E-2,-3.162499983E-3,-2.804999985E-2
1.361303786E1,1.663750038E-2,-1.787499990E-3,-3.767500073E-2
1.363303786E1,1.319999993E-2,-1.374999993E-3,-3.492499888E-2
1.365303786E1,5.774999969E-3,-1.374999993E-3,-2.956249937E-2
1.367303786E1,-9.349999949E-3,-1.374999993E-3,2.612499986E-3
1.369303786E1,-1.374999993E-2,-1.924999990E-3,1.182499994E-2
1.371303786E1,-2.543750033E-2,-4.812499974E-3,3.423750028E-2
1.373303786E1,-3.602499887E-2,-4.399999976E-3,5.898749828E-2
1.375303786E1,-3.616249934E-2,-4.399999976E-3,6.311249733E-2
1.377303786E1,-3.671250120E-2,-3.987499978E-3,6.710000336E-2
1.379303786E1,-4.028749838E-2,-3.162499983E-3,7.369999588E-2
1.381303786E1,-4.111250117E-2,-3.437499981E-3,7.617499679E-2
1.383303786E1,-4.331250116E-2,-4.124999978E-3,8.263749629E-2
1.385303786E1,-4.812499881E-2,-5.362499971E-3,8.882500231E-2
1.387303786E1,-4.647500068E-2,-6.049999967E-3,8.511249721E-2
1.389303786E1,-4.358749837E-2,-7.149999961E-3,7.823749632E-2
1.391303786E1,-4.235000163E-2,-7.149999961E-3,6.283749640E-2
1.393303786E1,-4.235000163E-2,-7.149999961E-3,6.283749640E-2
1.395303786E1,-4.179999977E-2,-6.874999963E-3,5.788749829E-2
1.397303786E1,-3.382499889E-2,-8.524999954E-3,4.784999788E-2
1.399303786E1,-2.997500077E-2,-9.349999949E-3,4.235000163E-2
1.401303786E1,-2.158750035E-2,-8.387500420E-3,2.983750030E-2
1.403303786E1,-1.429999992E-2,-6.324999966E-3,2.117500082E-2
1.405303786E1,-1.292499993E-2,-8.249999955E-3,2.309999987E-2
1.407303786E1,-1.044999994E-2,-9.349999949E-3,2.062499896E-2
1.409303786E1,-9.487500414E-3,-8.799999952E-3,1.952499896E-2
1.411303786E1,-9.212499484E-3,-6.462499965E-3,2.337500080E-2
1.413303786E1,-7.012499962E-3,-2.887499984E-3,1.883750036E-2
1.415303786E1,-6.049999967E-3,-1.924999990E-3,1.718750037E-2
1.417303786E1,-3.024999984E-3,-1.512499992E-3,1.512499992E-2
1.419303786E1,1.979999989E-2,1.099999994E-3,-2.117500082E-2
1.421303786E1,2.158750035E-2,2.199999988E-3,-2.516249940E-2
1.423303786E1,1.333750039E-2,2.062499989E-3,-1.237499993E-2
1.425303786E1,0.000000000E0,0.000000000E0,0.000000000E0
1.427303786E1,0.000000000E0,0.000000000E0,0.000000000E0
1.429303786E1,2.062499989E-3,-6.874999963E-4,-6.599999964E-3
1.431303786E1,7.562499959E-3,5.499999970E-4,-1.663750038E-2
1.433303786E1,1.333750039E-2,1.649999991E-3,-2.694999985E-2
1.435303786E1,2.282499894E-2,3.162499983E-3,-4.551250115E-2
1.437303786E1,2.186249942E-2,2.474999987E-3,-4.317500070E-2
1.439303786E1,1.952499896E-2,2.062499989E-3,-3.877500072E-2
1.441303786E1,9.212499484E-3,1.099999994E-3,-1.924999990E-2
1.443303786E1,-9.074999951E-3,-1.787499990E-3,1.498750038E-2
1.445303786E1,-1.058750041E-2,-1.374999993E-3,1.704999991E-2
1.447303786E1,0.000000000E0,0.000000000E0,0.000000000E0
1.449303786E1,1.539999992E-2,8.249999955E-4,-3.368749842E-2
1.451303786E1,1.911249943E-2,1.099999994E-3,-3.987500072E-2
1.453303786E1,2.653750032E-2,8.249999955E-4,-5.238749832E-2
1.455303786E1,3.299999982E-2,-1.787499990E-3,-6.393750012E-2
1.457303786E1,3.093750030E-2,-2.474999987E-3,-5.926249921E-2
1.459303786E1,2.378750034E-2,-2.749999985E-3,-4.372499883E-2
1.461303786E1,1.031249948E-2,-4.949999973E-3,-1.993750036E-2
1.463303786E1,7.424999960E-3,-5.774999969E-3,-1.498750038E-2
1.465303786E1,8.249999955E-3,-7.424999960E-3,-1.622499898E-2
1.467303786E1,1.319999993E-2,-5.362499971E-3,-2.474999987E-2
1.469303786E1,1.278750040E-2,-4.949999973E-3,-2.406249940E-2
1.471303786E1,6.599999964E-3,-4.262499977E-3,-1.237499993E-2
1.473303786E1,-9.762499481E-3,-6.599999964E-3,2.199999988E-2
1.475303786E1,-1.388750039E-2,-6.874999963E-3,3.286249936E-2
1.477303786E1,-1.856249943E-2,-7.974999957E-3,4.056249931E-2
1.479303786E1,-2.213750035E-2,-6.599999964E-3,4.482499883E-2
1.481303786E1,-2.089999989E-2,-5.499999970E-3,4.166249931E-2
1.483303786E1,-1.622499898E-2,-4.399999976E-3,3.107500076E-2
1.485303786E1,-6.049999967E-3,-1.374999993E-4,7.699999958E-3
1.487303786E1,0.000000000E0,0.000000000E0,0.000000000E0
1.489303786E1,8.662499487E-3,3.987499978E-3,-1.842499897E-2
1.491303786E1,1.636249945E-2,3.574999981E-3,-3.052499890E-2
1.493303786E1,1.883750036E-2,2.062499989E-3,-3.478749841E-2
1.495303786E1,2.296249941E-2,4.124999978E-4,-4.028749838E-2
1.497303786E1,2.309999987E-2,-2.749999985E-4,-3.987500072E-2
1.499303786E1,2.144999988E-2,-1.374999993E-4,-3.684999794E-2
1.501303786E1,1.402499992E-2,1.374999993E-4,-2.076249942E-2
1.503303786E1,1.099999994E-2,5.499999970E-4,-1.457499992E-2
1.505303786E1,8.662499487E-3,1.237499993E-3,-9.487500414E-3
1.507303786E1,-8.937500417E-3,-2.749999985E-4,3.313750029E-2
1.509303786E1,-1.581249945E-2,-4.124999978E-4,4.688749835E-2
1.511303786E1,-2.433750033E-2,-1.374999993E-4,5.995000154E-2
1.513303786E1,-2.681249939E-2,-1.787499990E-3,5.843750015E-2
1.515303786E1,-2.653750032E-2,-1.787499990E-3,5.678749830E-2
1.517303786E1,-2.818750031E-2,-2.062499989E-3,5.362499878E-2
1.519303786E1,-2.474999987E-2,-1.649999991E-3,3.726249933E-2
1.521303786E1,-2.323750034E-2,-1.512499992E-3,3.368749842E-2
1.523303786E1,-2.419999987E-2,-6.874999963E-4,3.093750030E-2
1.525303786E1,-2.144999988E-2,1.374999993E-4,2.722499892E-2
1.527303786E1,-1.897500083E-2,-0.000000000E0,2.447500080E-2
1.529303786E1,-1.471249945E-2,-1.374999993E-4,1.897500083E-2
1.531303786E1,1.168750040E-2,-2.062499989E-3,-2.763750032E-2
1.533303786E1,1.801249944E-2,-2.337499987E-3,-3.891250119E-2
1.535303786E1,2.213750035E-2,-3.024999984E-3,-4.675000161E-2
1.537303786E1,2.612499893E-2,-2.062499989E-3,-5.788749829E-2
1.539303786E1,2.736249939E-2,-1.374999993E-3,-5.706249923E-2
1.541303786E1,2.942499891E-2,-8.249999955E-4,-5.664999783E-2
1.543303786E1,3.038750030E-2,2.199999988E-3,-5.431250110E-2
1.545303786E1,3.121249937E-2,2.749999985E-3,-5.513750017E-2
1.547303786E1,3.506249934E-2,2.337499987E-3,-5.692499876E-2
1.549303786E1,2.956249937E-2,2.612499986E-3,-4.977500066E-2
1.551303786E1,2.763750032E-2,2.062499989E-3,-4.757500067E-2
1.553303786E1,2.461249940E-2,5.499999970E-4,-4.399999976E-2
1.555303786E1,1.416249946E-2,1.374999993E-4,-2.571249940E-2
1.557303786E1,1.113750041E-2,-0.000000000E0,-1.938750036E-2
1.559303786E1,7.699999958E-3,-2.749999985E-4,-1.251249947E-2
1.561303786E1,-1.127499994E-2,-2.474999987E-3,2.323750034E-2
1.563303786E1,-1.704999991E-2,-4.124999978E-3,3.286249936E-2
1.565303786E1,-2.254999988E-2,-7.149999961E-3,4.289999977E-2
1.567303786E1,-1.911249943E-2,-1.003750041E-2,3.409999982E-2
1.569303786E1,-1.471249945E-2,-1.044999994E-2,2.612499893E-2
1.571303786E1,-5.912499968E-3,-1.017499994E-2,1.003750041E-2
1.573303786E1,1.512499992E-3,-1.182499994E-2,-9.624999948E-4
1.575303786E1,3.299999982E-3,-1.292499993E-2,-3.574999981E-3
1.577303786E1,4.262499977E-3,-1.099999994E-2,-2.337499987E-3
1.579303786E1,-1.099999994E-3,-7.287499961E-3,4.262499977E-3
1.581303786E1,-1.099999994E-3,-7.287499961E-3,4.262499977E-3
1.583303786E1,0.000000000E0,0.000000000E0,0.000000000E0
1.585303786E1,6.737499963E-3,-8.249999955E-4,-8.524999954E-3
1.587303786E1,1.402499992E-2,-5.499999970E-4,-2.227500081E-2
1.589303786E1,2.447500080E-2,-1.374999993E-4,-4.289999977E-2
1.591303786E1,1.691249944E-2,-1.649999991E-3,-2.969999984E-2
1.593303786E1,1.141249947E-2,-2.062499989E-3,-1.979999989E-2
1.595303786E1,2.887499984E-3,8.249999955E-4,-6.187499966E-3
1.597303786E1,-1.127499994E-2,7.699999958E-3,2.034999989E-2
1.599303786E1,-1.471249945E-2,8.249999955E-3,2.694999985E-2
1.601303786E1,-1.484999992E-2,5.499999970E-3,2.846249938E-2
1.603303786E1,-9.487500414E-3,3.437499981E-3,2.433750033E-2
1.605303786E1,-8.937500417E-3,2.474999987E-3,2.461249940E-2
1.607303786E1,-8.249999955E-3,-2.749999985E-4,2.543750033E-2
1.609303786E1,-8.112499490E-3,1.374999993E-4,2.818750031E-2
1.611303786E1,-9.074999951E-3,6.874999963E-4,3.107500076E-2
1.613303786E1,-1.732499897E-2,2.749999985E-4,4.606249928E-2
1.615303786E1,-1.842499897E-2,1.374999993E-4,4.496249929E-2
1.617303786E1,-1.856249943E-2,-4.124999978E-4,4.028749838E-2
1.619303786E1,-1.718750037E-2,-2.199999988E-3,3.148749843E-2
1.621303786E1,-1.883750036E-2,-3.437499981E-3,2.887500077E-2
1.623303786E1,-1.718750037E-2,-3.437499981E-3,2.557500079E-2
1.625303786E1,-3.987499978E-3,-1.649999991E-3,5.362499971E-3
1.627303786E1,-4.537499975E-3,-1.512499992E-3,7.012499962E-3
1.629303786E1,-6.187499966E-3,-4.124999978E-4,1.718750037E-2
1.631303786E1,-8.112499490E-3,-1.374999993E-3,2.089999989E-2
1.633303786E1,-1.196249947E-2,-1.787499990E-3,2.791249938E-2
1.635303786E1,-1.759999990E-2,-1.787499990E-3,3.684999794E-2
1.637303786E1,-1.031249948E-2,-2.199999988E-3,1.979999989E-2
1.639303786E1,-7.562499959E-3,-2.474999987E-3,1.333750039E-2
1.641303786E1,0.000000000E0,0.000000000E0,0.000000000E0
1.643303786E1,3.946249932E-2,1.649999991E-3,-7.796250284E-2
1.645303786E1,4.908749834E-2,3.299999982E-3,-9.556250274E-2
1.647303786E1,6.077500060E-2,4.812499974E-3,-1.201749966E-1
1.649303786E1,6.861250103E-2,5.912499968E-3,-1.355749965E-1
1.651303786E1,6.957499683E-2,6.462499965E-3,-1.370874941E-1
1.653303786E1,6.847500056E-2,6.187499966E-3,-1.372250021E-1
1.655303786E1,5.238749832E-2,3.987499978E-3,-1.098624989E-1
1.657303786E1,4.619999975E-2,3.437499981E-3,-9.844999760E-2
1.659303786E1,3.561250120E-2,2.887499984E-3,-7.631249726E-2
1.661303786E1,1.746249944E-2,4.537499975E-3,-3.739999980E-2
1.663303786E1,9.074999951E-3,4.812499974E-3,-2.117500082E-2
1.665303786E1,-1.031249948E-2,6.187499966E-3,2.131249942E-2
1.667303786E1,-4.482499883E-2,1.924999990E-3,9.844999760E-2
1.669303786E1,-5.486249924E-2,0.000000000E0,1.178374961E-1
1.671303786E1,-6.778749824E-2,-2.749999985E-3,1.376374960E-1
1.673303786E1,-7.301250100E-2,-6.462499965E-3,1.414874941E-1
1.675303786E1,-7.232499868E-2,-7.974999957E-3,1.384624988E-1
1.677303786E1,-6.847500056E-2,-7.424999960E-3,1.215500012E-1
1.679303786E1,-5.115000159E-2,-5.499999970E-3,9.267500043E-2
1.681303786E1,-4.564999789E-2,-5.637499969E-3,8.359999955E-2
1.683303786E1,-2.914999984E-2,-7.424999960E-3,5.431250110E-2
1.685303786E1,-3.024999984E-3,-6.599999964E-3,6.462499965E-3
1.687303786E1,4.124999978E-4,-4.812499974E-3,2.749999985E-4
1.689303786E1,6.599999964E-3,-9.624999948E-3,-1.017499994E-2
1.691303786E1,1.484999992E-2,-1.196249947E-2,-2.873750031E-2
1.693303786E1,1.759999990E-2,-1.113750041E-2,-3.616249934E-2
1.695303786E1,2.103750035E-2,-8.662499487E-3,-4.441250116E-2
1.697303786E1,1.911249943E-2,-6.737499963E-3,-4.056249931E-2
1.699303786E1,1.828750037E-2,-6.874999963E-3,-3.822499886E-2
1.701303786E1,1.443750039E-2,-8.112499490E-3,-3.258749843E-2
1.703303786E1,6.324999966E-3,-6.874999963E-3,-2.309999987E-2
1.705303786E1,6.049999967E-3,-6.599999964E-3,-2.529999986E-2
1.707303786E1,6.737499963E-3,-6.049999967E-3,-3.079999983E-2
1.709303786E1,-4.949999973E-3,-4.812499974E-3,-4.124999978E-4
1.711303786E1,-1.141249947E-2,-4.262499977E-3,1.361249946E-2
1.713303786E1,-2.296249941E-2,-3.849999979E-3,3.698749840E-2
1.715303786E1,-2.543750033E-2,-2.749999985E-3,4.482499883E-2
1.717303786E1,-2.433750033E-2,-2.474999987E-3,4.468749836E-2
1.719303786E1,-1.993750036E-2,2.199999988E-3,3.973750025E-2
1.721303786E1,-1.718750037E-2,3.162499983E-3,3.781250119E-2
1.723303786E1,-1.127499994E-2,1.924999990E-3,3.409999982E-2
1.725303786E1,-2.887499984E-3,3.987499978E-3,3.698749840E-2
1.727303786E1,5.499999970E-4,4.537499975E-3,3.368749842E-2
1.729303786E1,6.324999966E-3,5.087499972E-3,2.516249940E-2
1.731303786E1,2.887499984E-3,6.187499966E-3,1.828750037E-2
1.733303786E1,2.612499986E-3,6.737499963E-3,1.526249945E-2
1.735303786E1,3.849999979E-3,6.874999963E-3,5.774999969E-3
1.737303786E1,5.224999972E-3,8.249999955E-3,-6.874999963E-4
1.739303786E1,5.912499968E-3,1.044999994E-2,9.624999948E-4
1.741303786E1,3.162499983E-3,9.762499481E-3,3.849999979E-3
1.743303786E1,-2.749999985E-3,7.012499962E-3,1.154999994E-2
1.745303786E1,-7.149999961E-3,6.324999966E-3,1.842499897E-2
1.747303786E1,-1.649999991E-2,6.599999964E-3,3.244999796E-2
1.749303786E1,-2.516249940E-2,7.287499961E-3,3.231250122E-2
1.751303786E1,-2.474999987E-2,7.699999958E-3,2.681249939E-2
1.753303786E1,-1.952499896E-2,8.249999955E-3,1.773750037E-2
1.755303786E1,-1.141249947E-2,6.049999967E-3,1.099999994E-2
1.757303786E1,-1.086249948E-2,4.812499974E-3,1.209999993E-2
1.759303786E1,-1.127499994E-2,1.512499992E-3,1.993750036E-2
1.761303786E1,-6.049999967E-3,-6.187499966E-3,1.278750040E-2
1.763303786E1,-2.749999985E-3,-6.737499963E-3,6.599999964E-3
1.765303786E1,5.637499969E-3,-5.224999972E-3,-7.699999958E-3
1.767303786E1,1.759999990E-2,-3.987499978E-3,-2.873750031E-2
1.769303786E1,2.213750035E-2,-4.124999978E-3,-3.684999794E-2
1.771303786E1,2.584999986E-2,-3.712499980E-3,-4.276249930E-2
1.773303786E1,1.594999991E-2,-3.299999982E-3,-2.392499894E-2
1.775303786E1,1.209999993E-2,-3.437499981E-3,-1.498750038E-2
1.777303786E1,7.012499962E-3,-4.537499975E-3,-5.224999972E-3
1.779303786E1,-1.416249946E-2,-7.699999958E-3,3.313750029E-2
1.781303786E1,-1.691249944E-2,-7.149999961E-3,3.877500072E-2
1.783303786E1,-1.402499992E-2,-3.849999979E-3,3.657500073E-2
1.785303786E1,-4.537499975E-3,1.237499993E-3,1.773750037E-2
1.787303786E1,-5.362499971E-3,4.399999976E-3,1.828750037E-2
1.789303786E1,-4.674999975E-3,5.912499968E-3,1.512499992E-2
1.791303786E1,0.000000000E0,0.000000000E0,0.000000000E0
1.793303786E1,-0.000000000E0,2.887499984E-3,6.324999966E-3
1.795303786E1,-1.099999994E-3,1.924999990E-3,1.278750040E-2
1.797303786E1,1.168750040E-2,1.099999994E-3,-2.337499987E-3
1.799303786E1,1.814999990E-2,8.249999955E-4,-1.388750039E-2
1.801303786E1,3.038750030E-2,2.337499987E-3,-3.973750025E-2
1.803303786E1,3.561250120E-2,3.712499980E-3,-5.376249924E-2
1.805303786E1,3.423750028E-2,4.124999978E-3,-5.238749832E-2
1.807303786E1,3.189999983E-2,4.399999976E-3,-5.183750018E-2
1.809303786E1,2.818750031E-2,6.462499965E-3,-4.936249927E-2
1.811303786E1,2.612499893E-2,6.049999967E-3,-4.564999789E-2
1.813303786E1,2.406249940E-2,5.637499969E-3,-4.331250116E-2
1.815303786E1,1.842499897E-2,4.537499975E-3,-3.629999980E-2
1.817303786E1,1.677500084E-2,4.399999976E-3,-3.409999982E-2
1.819303786E1,1.306249946E-2,2.062499989E-3,-3.121249937E-2
1.821303786E1,1.058750041E-2,1.374999993E-4,-3.478749841E-2
1.823303786E1,9.762499481E-3,-8.249999955E-4,-3.533750027E-2
1.825303786E1,4.399999976E-3,-3.712499980E-3,-2.227500081E-2
1.827303786E1,1.044999994E-2,-5.224999972E-3,-3.409999982E-2
1.829303786E1,1.498750038E-2,-5.224999972E-3,-4.262499884E-2
1.831303786E1,2.612499893E-2,-6.874999963E-3,-6.256250292E-2
1.833303786E1,2.818750031E-2,-7.699999958E-3,-6.737499684E-2
1.835303786E1,2.433750033E-2,-8.799999952E-3,-5.857500061E-2
1.837303786E1,2.612499986E-3,-7.424999960E-3,-1.416249946E-2
1.839303786E1,-1.237499993E-3,-6.462499965E-3,-5.362499971E-3
1.841303786E1,-6.462499965E-3,-8.799999952E-3,5.087499972E-3
1.843303786E1,-1.361249946E-2,-8.662499487E-3,1.828750037E-2
1.845303786E1,-1.553750038E-2,-8.249999955E-3,2.021249942E-2
1.847303786E1,-1.787500083E-2,-9.074999951E-3,2.296249941E-2
1.849303786E1,-3.327500075E-2,-9.212499484E-3,5.169999972E-2
1.851303786E1,-4.111250117E-2,-8.937500417E-3,6.806249917E-2
1.853303786E1,-5.156249925E-2,-8.524999954E-3,8.964999765E-2
1.855303786E1,-4.908749834E-2,-7.974999957E-3,9.075000137E-2
1.857303786E1,-4.413750023E-2,-7.424999960E-3,8.470000327E-2
1.859303786E1,-3.079999983E-2,-7.012499962E-3,5.829999968E-2
1.861303786E1,-1.484999992E-2,-7.699999958E-3,2.461249940E-2
1.863303786E1,-9.762499481E-3,-7.012499962E-3,1.374999993E-2
1.865303786E1,-0.000000000E0,-2.887499984E-3,-6.187499966E-3
1.867303786E1,1.402499992E-2,-0.000000000E0,-3.093750030E-2
1.869303786E1,2.007500082E-2,1.374999993E-3,-4.069999978E-2
1.871303786E1,3.244999796E-2,2.887499984E-3,-6.215000153E-2
1.873303786E1,5.046249926E-2,3.024999984E-3,-9.157499671E-2
1.875303786E1,5.472499877E-2,3.162499983E-3,-9.886249900E-2
1.877303786E1,5.692499876E-2,1.237499993E-3,-1.040875018E-1
1.879303786E1,4.152499884E-2,0.000000000E0,-7.590000331E-2
1.881303786E1,3.176249936E-2,-9.624999948E-4,-5.802499875E-2
1.883303786E1,1.388750039E-2,-1.237499993E-3,-2.584999986E-2
1.885303786E1,3.437499981E-3,-1.924999990E-3,-2.887499984E-3
1.887303786E1,0.000000000E0,0.000000000E0,0.000000000E0
1.889303786E1,-1.787499990E-3,-2.337499987E-3,1.154999994E-2
1.891303786E1,2.337499987E-3,-6.737499963E-3,6.737499963E-3
1.893303786E1,4.399999976E-3,-8.249999955E-3,2.887499984E-3
1.895303786E1,6.462499965E-3,-7.287499961E-3,-1.237499993E-3
1.897303786E1,1.787499990E-3,-6.049999967E-3,5.637499969E-3
1.899303786E1,1.374999993E-4,-5.912499968E-3,7.837500423E-3
1.901303786E1,-3.712499980E-3,-3.574999981E-3,1.374999993E-2
1.903303786E1,-4.262499977E-3,-1.099999994E-3,8.799999952E-3
1.905303786E1,-3.162499983E-3,-6.874999963E-4,6.187499966E-3
1.907303786E1,2.612499986E-3,-1.374999993E-3,-3.849999979E-3
1.909303786E1,1.402499992E-2,-2.337499987E-3,-2.364999987E-2
1.911303786E1,1.264999993E-2,-3.437499981E-3,-2.117500082E-2
1.913303786E1,3.024999984E-3,-5.362499971E-3,-3.162499983E-3
1.915303786E1,-1.374999993E-2,-7.562499959E-3,2.667500079E-2
1.917303786E1,-2.296249941E-2,-7.012499962E-3,4.248749837E-2
1.919303786E1,-3.313750029E-2,-5.912499968E-3,5.403750017E-2
1.921303786E1,-2.488750033E-2,-2.749999985E-3,3.244999796E-2
1.923303786E1,-2.158750035E-2,-1.099999994E-3,2.653750032E-2
1.925303786E1,-6.049999967E-3,1.649999991E-3,3.024999984E-3
1.927303786E1,2.034999989E-2,1.374999993E-3,-4.455000162E-2
1.929303786E1,2.089999989E-2,-9.624999948E-4,-4.482499883E-2
1.931303786E1,1.526249945E-2,-1.787499990E-3,-2.997500077E-2
1.933303786E1,1.223750040E-2,-1.237499993E-3,-2.474999987E-2
1.935303786E1,1.182499994E-2,-8.249999955E-4,-2.447500080E-2
1.937303786E1,1.127499994E-2,1.237499993E-3,-3.079999983E-2
1.939303786E1,1.416249946E-2,3.987499978E-3,-3.822499886E-2
1.941303786E1,1.883750036E-2,7.562499959E-3,-4.317500070E-2
1.943303786E1,1.526249945E-2,3.712499980E-3,-3.299999982E-2
1.945303786E1,1.388750039E-2,1.787499990E-3,-2.997500077E-2
1.947303786E1,8.112499490E-3,-1.649999991E-3,-1.773750037E-2
1.949303786E1,-1.581249945E-2,-9.212499484E-3,2.804999985E-2
1.951303786E1,-2.021249942E-2,-9.899999946E-3,3.629999980E-2
1.953303786E1,-2.309999987E-2,-7.424999960E-3,4.166249931E-2
1.955303786E1,-2.571249940E-2,-3.849999979E-3,4.083750024E-2
1.957303786E1,-2.571249940E-2,-3.849999979E-3,4.083750024E-2
1.959303786E1,-3.011249937E-2,1.374999993E-4,4.702499881E-2
1.961303786E1,-2.859999985E-2,2.887499984E-3,4.743750021E-2
1.963303786E1,-2.447500080E-2,2.612499986E-3,4.001250118E-2
1.965303786E1,-2.048750035E-2,1.787499990E-3,3.355000168E-2
1.967303786E1,-2.089999989E-2,-6.874999963E-4,3.547500074E-2
1.969303786E1,-2.282499894E-2,-1.374999993E-4,3.918749839E-2
1.971303786E1,-2.406249940E-2,-5.499999970E-4,4.152499884E-2
1.973303786E1,-2.103750035E-2,-6.874999963E-4,3.355000168E-2
1.975303786E1,-2.034999989E-2,2.749999985E-3,3.107500076E-2
1.977303786E1,-1.787500083E-2,2.887499984E-3,2.639999986E-2
1.979303786E1,-1.168750040E-2,2.337499987E-3,1.691249944E-2
1.981303786E1,-4.262499977E-3,1.512499992E-3,5.224999972E-3
1.983303786E1,-1.649999991E-3,2.749999985E-4,4.674999975E-3
1.985303786E1,-9.487500414E-3,-5.224999972E-3,2.254999988E-2
1.987303786E1,-1.223750040E-2,-5.224999972E-3,2.804999985E-2
1.989303786E1,-1.099999994E-2,-4.537499975E-3,2.777500078E-2
1.991303786E1,-1.141249947E-2,-3.162499983E-3,3.093750030E-2
1.993303786E1,-1.429999992E-2,-3.162499983E-3,3.616249934E-2
1.995303786E1,-2.144999988E-2,-2.887499984E-3,4.455000162E-2
1.997303786E1,-2.818750031E-2,-4.262499977E-3,5.582499877E-2
1.999303786E1,-2.832499892E-2,-5.499999970E-3,5.568749830E-2
2.001303786E1,-2.736249939E-2,-6.874999963E-3,5.348749831E-2
2.003303786E1,-2.103750035E-2,-7.287499961E-3,4.193750024E-2
2.005303786E1,-2.103750035E-2,-7.287499961E-3,4.193750024E-2
2.007303786E1,-4.949999973E-3,-5.087499972E-3,1.374999993E-2
2.009303786E1,1.388750039E-2,-1.649999991E-3,-1.883750036E-2
2.011303786E1,2.172499895E-2,-5.499999970E-4,-3.286249936E-2
2.013303786E1,3.327500075E-2,8.249999955E-4,-5.733750015E-2
2.015303786E1,4.895000160E-2,2.612499986E-3,-8.772499859E-2
2.017303786E1,5.115000159E-2,3.437499981E-3,-9.239999950E-2
2.019303786E1,5.266249925E-2,5.087499972E-3,-9.391249716E-2
2.021303786E1,4.221250117E-2,3.299999982E-3,-7.356250286E-2
2.023303786E1,3.795000166E-2,1.787499990E-3,-6.572499871E-2
2.025303786E1,2.584999986E-2,-1.924999990E-3,-4.344999790E-2
2.027303786E1,-4.812499974E-3,-8.524999954E-3,1.196249947E-2
2.029303786E1,-1.031249948E-2,-6.874999963E-3,2.213750035E-2
2.031303786E1,-1.636249945E-2,-5.087499972E-3,3.244999796E-2
2.033303786E1,-2.736249939E-2,-4.262499977E-3,4.812499881E-2
2.035303786E1,-3.451250121E-2,-3.849999979E-3,5.953750014E-2
2.037303786E1,-5.046249926E-2,-3.024999984E-3,8.923749626E-2
2.039303786E1,-6.215000153E-2,-4.399999976E-3,1.099999994E-1
2.041303786E1,-5.816249922E-2,-4.537499975E-3,1.023000032E-1
2.043303786E1,-4.509999976E-2,-4.399999976E-3,7.782500237E-2
2.045303786E1,-3.396249935E-2,-2.062499989E-3,5.733750015E-2
2.047303786E1,-7.837500423E-3,6.874999963E-4,9.074999951E-3
2.049303786E1,2.296249941E-2,6.324999966E-3,-4.784999788E-2
2.051303786E1,3.189999983E-2,1.003750041E-2,-6.476250291E-2
2.053303786E1,3.135000169E-2,7.562499959E-3,-6.311249733E-2
2.055303786E1,3.052499890E-2,5.362499971E-3,-5.981250107E-2
2.057303786E1,2.873750031E-2,4.537499975E-3,-5.541250110E-2
2.059303786E1,2.846249938E-2,2.474999987E-3,-5.115000159E-2
2.061303786E1,2.914999984E-2,1.512499992E-3,-4.702499881E-2
2.063303786E1,2.584999986E-2,4.124999978E-4,-4.207500070E-2
2.065303786E1,1.993750036E-2,-2.749999985E-4,-3.231250122E-2
2.067303786E1,1.581249945E-2,-1.512499992E-3,-2.612499893E-2
2.069303786E1,3.162499983E-3,-6.874999963E-4,-3.712499980E-3
2.071303786E1,-1.471249945E-2,2.749999985E-4,2.969999984E-2
2.073303786E1,-1.897500083E-2,3.024999984E-3,3.918749839E-2
2.075303786E1,-1.594999991E-2,7.424999960E-3,4.001250118E-2
2.077303786E1,-1.498750038E-2,1.044999994E-2,3.753750026E-2
2.079303786E1,1.099999994E-3,8.799999952E-3,4.124999978E-3
2.081303786E1,7.699999958E-3,7.699999958E-3,-8.524999954E-3
2.083303786E1,1.306249946E-2,6.049999967E-3,-1.842499897E-2
2.085303786E1,1.526249945E-2,3.712499980E-3,-2.323750034E-2
2.087303786E1,1.718750037E-2,5.774999969E-3,-2.598750032E-2
2.089303786E1,1.801249944E-2,5.912499968E-3,-2.461249940E-2
2.091303786E1,7.974999957E-3,5.637499969E-3,-9.762499481E-3
2.093303786E1,5.637499969E-3,4.949999973E-3,-6.324999966E-3
2.095303786E1,6.187499966E-3,3.574999981E-3,-1.182499994E-2
2.097303786E1,4.399999976E-3,2.337499987E-3,-2.021249942E-2
2.099303786E1,4.537499975E-3,1.237499993E-3,-2.144999988E-2
2.101303786E1,7.012499962E-3,-5.499999970E-4,-2.007500082E-2
2.103303786E1,5.912499968E-3,1.374999993E-3,-1.498750038E-2
2.105303786E1,5.499999970E-3,3.437499981E-3,-1.402499992E-2
2.107303786E1,6.049999967E-3,5.499999970E-3,-1.484999992E-2
2.109303786E1,8.249999955E-4,1.031249948E-2,-9.212499484E-3
2.111303786E1,0.000000000E0,1.086249948E-2,-9.899999946E-3
2.113303786E1,-1.099999994E-3,1.223750040E-2,-1.058750041E-2
2.115303786E1,-6.874999963E-4,1.264999993E-2,-5.499999970E-3
2.117303786E1,-6.874999963E-4,1.196249947E-2,-4.949999973E-3
2.119303786E1,-8.937500417E-3,8.524999954E-3,1.168750040E-2
2.121303786E1,-1.773750037E-2,4.949999973E-3,2.804999985E-2
2.123303786E1,-1.787500083E-2,4.537499975E-3,2.887500077E-2
2.125303786E1,-2.392499894E-2,2.749999985E-3,3.726249933E-2
2.127303786E1,-3.355000168E-2,1.649999991E-3,5.293750018E-2
2.129303786E1,-3.464999795E-2,1.512499992E-3,5.651250109E-2
2.131303786E1,-3.299999982E-2,1.374999993E-4,5.623750016E-2
2.133303786E1,-2.199999988E-2,-2.749999985E-3,4.193750024E-2
2.135303786E1,-2.103750035E-2,-3.574999981E-3,4.179999977E-2
2.137303786E1,-1.264999993E-2,-3.712499980E-3,2.873750031E-2
2.139303786E1,1.622499898E-2,-1.787499990E-3,-2.337500080E-2
2.141303786E1,2.378750034E-2,-5.499999970E-4,-3.616249934E-2
2.143303786E1,3.602499887E-2,1.374999993E-3,-5.362499878E-2
2.145303786E1,4.839999974E-2,3.024999984E-3,-7.163749635E-2
2.147303786E1,5.004999787E-2,3.162499983E-3,-7.644999772E-2
2.149303786E1,4.963750020E-2,3.024999984E-3,-7.864999771E-2
2.151303786E1,4.221250117E-2,-0.000000000E0,-6.668750197E-2
2.153303786E1,3.409999982E-2,-4.674999975E-3,-5.376249924E-2
2.155303786E1,2.186249942E-2,-4.674999975E-3,-3.203750029E-2
2.157303786E1,1.553750038E-2,-6.187499966E-3,-2.144999988E-2
2.159303786E1,-7.149999961E-3,-1.168750040E-2,1.842499897E-2
2.161303786E1,-1.704999991E-2,-1.553750038E-2,3.657500073E-2
2.163303786E1,-1.622499898E-2,-1.663750038E-2,3.478749841E-2
2.165303786E1,-1.154999994E-2,-1.539999992E-2,2.516249940E-2
2.167303786E1,-1.251249947E-2,-1.457499992E-2,2.254999988E-2
2.169303786E1,-1.979999989E-2,-1.264999993E-2,3.203750029E-2
2.171303786E1,-2.598750032E-2,-1.044999994E-2,4.564999789E-2
2.173303786E1,-2.901249938E-2,-8.387500420E-3,5.211250111E-2
2.175303786E1,-2.956249937E-2,-6.874999963E-3,5.403750017E-2
2.177303786E1,-2.488750033E-2,-5.362499971E-3,5.059999973E-2
2.179303786E1,-1.251249947E-2,-4.262499977E-3,3.189999983E-2
2.181303786E1,5.912499968E-3,-1.787499990E-3,-5.774999969E-3
2.183303786E1,1.828750037E-2,-9.624999948E-4,-3.011249937E-2
2.185303786E1,2.048750035E-2,0.000000000E0,-3.629999980E-2
2.187303786E1,1.347499993E-2,1.099999994E-3,-3.024999984E-2
2.189303786E1,5.499999970E-3,2.062499989E-3,-1.429999992E-2
2.191303786E1,-2.199999988E-3,3.987499978E-3,1.924999990E-3
2.193303786E1,-8.249999955E-3,6.324999966E-3,9.212499484E-3
2.195303786E1,-1.072499994E-2,3.712499980E-3,1.044999994E-2
2.197303786E1,-6.187499966E-3,2.749999985E-3,-5.087499972E-3
2.199303786E1,-1.099999994E-3,2.612499986E-3,-2.804999985E-2
2.201303786E1,2.474999987E-3,3.024999984E-3,-3.767500073E-2
2.203303786E1,1.787499990E-3,3.024999984E-3,-2.749999985E-2
2.205303786E1,1.787499990E-3,3.024999984E-3,-2.749999985E-2
2.207303786E1,-2.474999987E-3,3.849999979E-3,-1.209999993E-2
2.209303786E1,-1.209999993E-2,2.062499989E-3,1.526249945E-2
2.211303786E1,-1.017499994E-2,1.237499993E-3,1.512499992E-2
2.213303786E1,-3.437499981E-3,-3.024999984E-3,7.149999961E-3
2.215303786E1,3.024999984E-3,-6.187499966E-3,1.374999993E-4
2.217303786E1,6.874999963E-3,-9.762499481E-3,-5.087499972E-3
2.219303786E1,9.349999949E-3,-7.699999958E-3,-9.487500414E-3
2.221303786E1,2.626249939E-2,-2.887499984E-3,-3.286249936E-2
2.223303786E1,3.341250122E-2,-1.237499993E-3,-4.331250116E-2
2.225303786E1,3.464999795E-2,-9.624999948E-4,-4.551250115E-2
2.227303786E1,2.186249942E-2,-4.124999978E-4,-3.038750030E-2
2.229303786E1,1.979999989E-2,-1.374999993E-4,-2.736249939E-2
2.231303786E1,1.911249943E-2,1.374999993E-4,-3.341250122E-2
2.233303786E1,2.804999985E-2,6.187499966E-3,-6.448750198E-2
2.235303786E1,3.011249937E-2,8.249999955E-3,-6.902500242E-2
2.237303786E1,2.901249938E-2,1.031249948E-2,-6.641250104E-2
2.239303786E1,2.241249941E-2,1.361249946E-2,-4.936249927E-2
2.241303786E1,1.979999989E-2,1.416249946E-2,-4.344999790E-2
2.243303786E1,1.223750040E-2,1.003750041E-2,-2.791249938E-2
2.245303786E1,-1.003750041E-2,4.399999976E-3,1.457499992E-2
2.247303786E1,-1.636249945E-2,3.299999982E-3,2.653750032E-2
2.249303786E1,-2.144999988E-2,1.512499992E-3,3.616249934E-2
2.251303786E1,-6.324999966E-3,1.787499990E-3,1.003750041E-2
2.253303786E1,0.000000000E0,0.000000000E0,0.000000000E0
2.255303786E1,1.251249947E-2,-1.924999990E-3,-9.074999951E-3
2.257303786E1,1.072499994E-2,-5.362499971E-3,-1.099999994E-3
2.259303786E1,6.599999964E-3,-5.362499971E-3,4.674999975E-3
2.261303786E1,-5.087499972E-3,-6.737499963E-3,2.447500080E-2
2.263303786E1,-7.837500423E-3,-8.249999955E-3,2.791249938E-2
2.265303786E1,-8.799999952E-3,-6.874999963E-3,2.749999985E-2
2.267303786E1,-5.362499971E-3,-4.949999973E-3,1.814999990E-2
2.269303786E1,-4.812499974E-3,-4.674999975E-3,1.553750038E-2
2.271303786E1,-1.787499990E-3,-3.574999981E-3,2.749999985E-3
2.273303786E1,8.937500417E-3,-2.474999987E-3,-2.419999987E-2
2.275303786E1,1.154999994E-2,-2.337499987E-3,-2.859999985E-2
2.277303786E1,1.099999994E-2,-1.924999990E-3,-2.928750031E-2
2.279303786E1,1.223750040E-2,-2.749999985E-4,-3.299999982E-2
2.281303786E1,1.306249946E-2,4.124999978E-4,-3.313750029E-2
2.283303786E1,1.182499994E-2,3.024999984E-3,-3.107500076E-2
2.285303786E1,1.086249948E-2,4.537499975E-3,-2.983750030E-2
2.287303786E1,7.699999958E-3,4.537499975E-3,-2.378750034E-2
2.289303786E1,-8.249999955E-4,1.374999993E-3,-9.624999948E-3
2.291303786E1,0.000000000E0,0.000000000E0,0.000000000E0
2.293303786E1,-4.537499975E-3,-6.874999963E-4,-1.787499990E-3
2.295303786E1,0.000000000E0,0.000000000E0,0.000000000E0
2.297303786E1,0.000000000E0,0.000000000E0,0.000000000E0
2.299303786E1,0.000000000E0,0.000000000E0,0.000000000E0
2.301303786E1,-1.058750041E-2,-2.749999985E-3,8.524999954E-3
2.303303786E1,-1.842499897E-2,-4.262499977E-3,2.543750033E-2
2.305303786E1,-2.268750034E-2,-4.812499974E-3,3.341250122E-2
2.307303786E1,-3.973750025E-2,-6.324999966E-3,6.641250104E-2
2.309303786E1,-4.138749838E-2,-7.012499962E-3,6.984999776E-2
2.311303786E1,-4.221250117E-2,-8.387500420E-3,7.012499869E-2
2.313303786E1,-4.331250116E-2,-1.017499994E-2,7.301250100E-2
2.315303786E1,-4.386249930E-2,-1.113750041E-2,7.493750006E-2
2.317303786E1,-4.152499884E-2,-1.168750040E-2,7.273750007E-2
2.319303786E1,-3.712499887E-2,-1.196249947E-2,6.655000150E-2
2.321303786E1,-3.959999979E-2,-1.154999994E-2,7.095000148E-2
2.323303786E1,-4.276249930E-2,-8.524999954E-3,7.727500051E-2
2.325303786E1,-2.474999987E-2,-2.474999987E-3,4.509999976E-2
2.327303786E1,-1.718750037E-2,-2.612499986E-3,3.107500076E-2
2.329303786E1,-8.524999954E-3,-3.024999984E-3,1.443750039E-2
2.331303786E1,1.154999994E-2,-1.374999993E-3,-2.144999988E-2
2.333303786E1,1.828750037E-2,-1.649999991E-3,-3.423750028E-2
2.335303786E1,2.694999985E-2,-1.099999994E-3,-5.046249926E-2
2.337303786E1,3.822499886E-2,3.299999982E-3,-7.177499682E-2
2.339303786E1,4.303750023E-2,4.124999978E-3,-8.057499677E-2
2.341303786E1,4.743750021E-2,8.662499487E-3,-8.910000324E-2
2.343303786E1,4.289999977E-2,1.044999994E-2,-8.030000329E-2
2.345303786E1,4.042499885E-2,9.074999951E-3,-7.479999959E-2
2.347303786E1,3.561250120E-2,7.562499959E-3,-6.283749640E-2
2.349303786E1,2.653750032E-2,2.474999987E-3,-4.468749836E-2
2.351303786E1,1.856249943E-2,2.199999988E-3,-3.079999983E-2
2.353303786E1,0.000000000E0,0.000000000E0,0.000000000E0
2.355303786E1,-1.993750036E-2,-1.512499992E-3,3.987500072E-2
2.357303786E1,-2.598750032E-2,-6.874999963E-4,5.032499880E-2
2.359303786E1,-3.093750030E-2,6.874999963E-4,5.898749828E-2
2.361303786E1,-3.368749842E-2,-2.199999988E-3,6.118749827E-2
2.363303786E1,-3.382499889E-2,-2.749999985E-3,6.173750013E-2
2.365303786E1,-2.626249939E-2,-4.674999975E-3,4.661250114E-2
2.367303786E1,-2.144999988E-2,-6.599999964E-3,3.781250119E-2
2.369303786E1,-2.062499896E-2,-5.087499972E-3,3.299999982E-2
2.371303786E1,-2.433750033E-2,-4.399999976E-3,3.891250119E-2
2.373303786E1,-3.217500076E-2,-3.299999982E-3,5.032499880E-2
2.375303786E1,-3.451250121E-2,-2.887499984E-3,5.403750017E-2
2.377303786E1,-2.502499893E-2,-1.374999993E-3,3.643750027E-2
2.379303786E1,-1.196249947E-2,-5.499999970E-4,1.374999993E-2
2.381303786E1,0.000000000E0,0.000000000E0,0.000000000E0
2.383303786E1,0.000000000E0,0.000000000E0,0.000000000E0
2.385303786E1,-9.624999948E-4,-2.887499984E-3,-3.849999979E-3
2.387303786E1,-6.462499965E-3,-5.637499969E-3,6.737499963E-3
2.389303786E1,-2.639999986E-2,-6.324999966E-3,4.427500069E-2
2.391303786E1,-3.066249937E-2,-6.187499966E-3,5.335000157E-2
2.393303786E1,-2.186249942E-2,-5.912499968E-3,3.863750026E-2
2.395303786E1,-9.074999951E-3,-3.987499978E-3,1.814999990E-2
2.397303786E1,4.949999973E-3,-3.712499980E-3,-3.162499983E-3
2.399303786E1,1.306249946E-2,-1.924999990E-3,-1.869999990E-2
2.401303786E1,8.524999954E-3,-1.374999993E-4,-8.387500420E-3
2.403303786E1,1.512499992E-3,-1.787499990E-3,1.072499994E-2
2.405303786E1,-8.249999955E-4,-3.574999981E-3,1.787500083E-2
2.407303786E1,1.099999994E-3,-3.299999982E-3,1.416249946E-2
2.409303786E1,3.024999984E-3,-2.199999988E-3,1.498750038E-2
2.411303786E1,5.637499969E-3,-5.499999970E-4,1.168750040E-2
2.413303786E1,1.883750036E-2,9.624999948E-4,-9.899999946E-3
2.415303786E1,2.213750035E-2,1.237499993E-3,-1.856249943E-2
2.417303786E1,2.722499892E-2,2.474999987E-3,-3.286249936E-2
2.419303786E1,3.189999983E-2,6.737499963E-3,-4.716249928E-2
2.421303786E1,3.024999984E-2,7.424999960E-3,-4.537500069E-2
2.423303786E1,2.447500080E-2,7.837500423E-3,-3.643750027E-2
2.425303786E1,2.089999989E-2,5.637499969E-3,-3.327500075E-2
2.427303786E1,1.856249943E-2,5.224999972E-3,-2.997500077E-2
2.429303786E1,1.471249945E-2,4.399999976E-3,-2.681249939E-2
2.431303786E1,1.003750041E-2,3.712499980E-3,-2.818750031E-2
2.433303786E1,1.113750041E-2,3.849999979E-3,-3.464999795E-2
2.435303786E1,1.581249945E-2,3.299999982E-3,-4.399999976E-2
2.437303786E1,1.594999991E-2,4.812499974E-3,-4.276249930E-2
2.439303786E1,1.979999989E-2,5.224999972E-3,-4.963750020E-2
2.441303786E1,1.636249945E-2,3.849999979E-3,-4.152499884E-2
2.443303786E1,-2.749999985E-4,6.874999963E-4,-1.292499993E-2
2.445303786E1,-4.124999978E-4,-1.237499993E-3,-1.374999993E-2
2.447303786E1,-4.399999976E-3,-4.674999975E-3,-2.612499986E-3
2.449303786E1,-1.127499994E-2,-5.637499969E-3,1.416249946E-2
2.451303786E1,-9.074999951E-3,-4.949999973E-3,1.141249947E-2
2.453303786E1,-3.162499983E-3,-2.749999985E-3,2.474999987E-3
2.455303786E1,0.000000000E0,0.000000000E0,0.000000000E0
2.457303786E1,0.000000000E0,0.000000000E0,0.000000000E0
2.459303786E1,-4.537499975E-3,-2.749999985E-3,1.278750040E-2
2.461303786E1,-9.624999948E-3,-2.749999985E-3,1.883750036E-2
2.463303786E1,-1.099999994E-2,-2.749999985E-3,2.117500082E-2
2.465303786E1,-9.762499481E-3,-2.062499989E-3,1.622499898E-2
2.467303786E1,4.949999973E-3,5.499999970E-4,-1.471249945E-2
2.469303786E1,7.287499961E-3,2.062499989E-3,-1.801249944E-2
2.471303786E1,1.154999994E-2,2.887499984E-3,-2.543750033E-2
2.473303786E1,1.526249945E-2,8.524999954E-3,-2.983750030E-2
2.475303786E1,1.374999993E-2,7.699999958E-3,-2.571249940E-2
2.477303786E1,1.031249948E-2,6.049999967E-3,-1.952499896E-2
2.479303786E1,6.049999967E-3,6.599999964E-3,-1.347499993E-2
2.481303786E1,-5.499999970E-4,6.187499966E-3,-5.774999969E-3
2.483303786E1,1.237499993E-3,7.974999957E-3,-1.237499993E-2
2.485303786E1,2.199999988E-3,9.762499481E-3,-9.624999948E-3
2.487303786E1,3.299999982E-3,7.562499959E-3,-8.662499487E-3
2.489303786E1,1.168750040E-2,8.112499490E-3,-1.594999991E-2
2.491303786E1,7.149999961E-3,6.187499966E-3,2.474999987E-3
2.493303786E1,-4.537499975E-3,4.399999976E-3,2.309999987E-2
2.495303786E1,-1.154999994E-2,4.399999976E-3,3.148749843E-2
2.497303786E1,-1.113750041E-2,4.124999978E-3,2.681249939E-2
2.499303786E1,-5.774999969E-3,3.574999981E-3,1.388750039E-2
2.501303786E1,-1.237499993E-3,3.574999981E-3,7.562499959E-3
2.503303786E1,0.000000000E0,0.000000000E0,0.000000000E0
2.505303786E1,0.000000000E0,0.000000000E0,0.000000000E0
2.507303786E1,6.462499965E-3,-1.512499992E-3,-2.062499989E-3
2.509303786E1,1.168750040E-2,-2.337499987E-3,-1.209999993E-2
2.511303786E1,1.127499994E-2,-1.649999991E-3,-1.333750039E-2
2.513303786E1,8.387500420E-3,-2.612499986E-3,-1.264999993E-2
2.515303786E1,7.424999960E-3,-3.574999981E-3,-1.553750038E-2
2.517303786E1,9.487500414E-3,-4.262499977E-3,-1.718750037E-2
2.519303786E1,1.141249947E-2,-7.149999961E-3,-1.856249943E-2
2.521303786E1,1.017499994E-2,-7.149999961E-3,-1.512499992E-2
2.523303786E1,8.937500417E-3,-9.762499481E-3,-1.058750041E-2
2.525303786E1,-5.224999972E-3,-1.264999993E-2,1.649999991E-2
2.527303786E1,-1.031249948E-2,-1.374999993E-2,2.681249939E-2
2.529303786E1,-1.869999990E-2,-1.319999993E-2,4.303750023E-2
2.531303786E1,-2.461249940E-2,-1.141249947E-2,5.252499878E-2
2.533303786E1,-2.557500079E-2,-1.058750041E-2,5.403750017E-2
2.535303786E1,-2.914999984E-2,-7.699999958E-3,6.077500060E-2
2.537303786E1,-3.616249934E-2,-3.849999979E-3,7.727500051E-2
2.539303786E1,-3.684999794E-2,-2.612499986E-3,8.002500236E-2
2.541303786E1,-3.327500075E-2,-9.624999948E-4,7.301250100E-2
2.543303786E1,-2.722499892E-2,2.474999987E-3,6.132499874E-2
2.545303786E1,-2.488750033E-2,3.987499978E-3,5.967500061E-2
2.547303786E1,-1.801249944E-2,4.124999978E-3,4.853750020E-2
2.549303786E1,-6.324999966E-3,5.637499969E-3,2.639999986E-2
2.551303786E1,5.087499972E-3,8.387500420E-3,-2.749999985E-4
2.553303786E1,8.937500417E-3,9.074999951E-3,-1.113750041E-2
2.555303786E1,8.799999952E-3,9.487500414E-3,-2.131249942E-2
2.557303786E1,9.074999951E-3,9.349999949E-3,-2.227500081E-2
2.559303786E1,8.937500417E-3,8.799999952E-3,-2.406249940E-2
2.561303786E1,1.182499994E-2,3.574999981E-3,-3.437500075E-2
2.563303786E1,1.306249946E-2,5.499999970E-4,-3.616249934E-2
2.565303786E1,1.443750039E-2,-3.162499983E-3,-3.616249934E-2
2.567303786E1,1.677500084E-2,-5.224999972E-3,-4.124999791E-2
2.569303786E1,2.007500082E-2,-5.637499969E-3,-4.991250113E-2
2.571303786E1,3.121249937E-2,-2.337499987E-3,-7.438749820E-2
2.573303786E1,4.179999977E-2,1.512499992E-3,-8.951249719E-2
2.575303786E1,4.386249930E-2,2.612499986E-3,-8.978749812E-2
2.577303786E1,4.427500069E-2,3.712499980E-3,-8.758749813E-2
2.579303786E1,4.028749838E-2,1.787499990E-3,-7.782500237E-2
2.581303786E1,4.015000165E-2,8.249999955E-4,-7.919999957E-2
2.583303786E1,4.138749838E-2,-2.474999987E-3,-8.249999583E-2
2.585303786E1,3.904999793E-2,-4.674999975E-3,-7.658749819E-2
2.587303786E1,3.189999983E-2,-2.749999985E-3,-6.366249919E-2
2.589303786E1,2.089999989E-2,-1.924999990E-3,-4.661250114E-2
2.591303786E1,1.567500085E-2,-4.124999978E-4,-3.753750026E-2
2.593303786E1,-1.581249945E-2,3.574999981E-3,2.076249942E-2
2.595303786E1,-4.784999788E-2,6.874999963E-4,8.277499676E-2
2.597303786E1,-6.861250103E-2,-3.299999982E-3,1.226499975E-1
2.599303786E1,-7.562500238E-2,-5.774999969E-3,1.370874941E-1
2.601303786E1,-7.150000334E-2,-6.049999967E-3,1.297999918E-1
2.603303786E1,-6.049999967E-2,-4.674999975E-3,1.098624989E-1
2.605303786E1,-5.211250111E-2,-2.062499989E-3,9.459999949E-2
2.607303786E1,-4.042499885E-2,2.199999988E-3,7.397499681E-2
2.609303786E1,-2.983750030E-2,6.187499966E-3,5.472499877E-2
2.611303786E1,-1.856249943E-2,6.737499963E-3,3.382499889E-2
2.613303786E1,-4.124999978E-3,4.812499974E-3,7.424999960E-3
2.615303786E1,9.487500414E-3,5.362499971E-3,-1.773750037E-2
2.617303786E1,3.231250122E-2,5.774999969E-3,-5.967500061E-2
2.619303786E1,5.279999971E-2,6.324999966E-3,-9.858749807E-2
2.621303786E1,6.008749828E-2,5.774999969E-3,-1.132999957E-1
2.623303786E1,5.678749830E-2,3.299999982E-3,-1.076624990E-1
2.625303786E1,4.468749836E-2,6.874999963E-4,-8.359999955E-2
2.627303786E1,2.859999985E-2,-9.624999948E-4,-5.293750018E-2
2.629303786E1,8.662499487E-3,-2.062499989E-3,-1.594999991E-2
2.631303786E1,-1.979999989E-2,-4.124999978E-3,3.506249934E-2
2.633303786E1,-3.176249936E-2,-5.362499971E-3,5.513750017E-2
2.635303786E1,-3.795000166E-2,-6.599999964E-3,6.063750014E-2
2.637303786E1,-4.702499881E-2,-6.324999966E-3,7.644999772E-2
2.639303786E1,-5.169999972E-2,-6.049999967E-3,8.552499861E-2
2.641303786E1,-6.201250106E-2,-7.837500423E-3,1.079374999E-1
2.643303786E1,-6.311249733E-2,-1.223750040E-2,1.152250022E-1
2.645303786E1,-6.132499874E-2,-1.209999993E-2,1.126125008E-1
2.647303786E1,-5.802499875E-2,-9.762499481E-3,1.051874980E-1
2.649303786E1,-4.564999789E-2,-5.087499972E-3,8.249999583E-2
2.651303786E1,-3.973750025E-2,-1.237499993E-3,7.204999775E-2
2.653303786E1,-2.681249939E-2,7.287499961E-3,4.881250113E-2
2.655303786E1,-1.044999994E-2,1.182499994E-2,2.048750035E-2
2.657303786E1,-2.749999985E-3,1.182499994E-2,6.599999964E-3
2.659303786E1,9.074999951E-3,1.251249947E-2,-1.306249946E-2
2.661303786E1,1.594999991E-2,8.937500417E-3,-2.598750032E-2
2.663303786E1,1.773750037E-2,7.562499959E-3,-2.914999984E-2
2.665303786E1,2.433750033E-2,5.774999969E-3,-4.193750024E-2
2.667303786E1,3.038750030E-2,1.072499994E-2,-5.417500064E-2
2.669303786E1,2.873750031E-2,1.402499992E-2,-5.197500065E-2
2.671303786E1,2.928750031E-2,1.746249944E-2,-5.417500064E-2
2.673303786E1,3.932499886E-2,1.154999994E-2,-7.315000147E-2
2.675303786E1,4.179999977E-2,1.086249948E-2,-7.755000144E-2
2.677303786E1,4.386249930E-2,5.774999969E-3,-8.126249909E-2
2.679303786E1,3.451250121E-2,-1.649999991E-3,-6.352499872E-2
2.681303786E1,3.148749843E-2,-2.337499987E-3,-5.706249923E-2
2.683303786E1,2.736249939E-2,-6.874999963E-4,-4.702499881E-2
2.685303786E1,2.282499894E-2,3.849999979E-3,-3.478749841E-2
2.687303786E1,2.089999989E-2,5.912499968E-3,-3.066249937E-2
2.689303786E1,1.979999989E-2,8.249999955E-3,-2.901249938E-2
2.691303786E1,2.089999989E-2,5.087499972E-3,-2.969999984E-2
2.693303786E1,2.034999989E-2,4.812499974E-3,-2.804999985E-2
2.695303786E1,1.608750038E-2,1.374999993E-3,-2.021249942E-2
2.697303786E1,7.699999958E-3,-0.000000000E0,-6.049999967E-3
2.699303786E1,0.000000000E0,0.000000000E0,0.000000000E0
2.701303786E1,-4.262499977E-3,-8.249999955E-4,1.484999992E-2
2.703303786E1,-1.141249947E-2,2.749999985E-4,2.694999985E-2
2.705303786E1,-7.424999960E-3,1.099999994E-3,1.869999990E-2
2.707303786E1,-6.462499965E-3,8.249999955E-4,1.649999991E-2
2.709303786E1,-7.837500423E-3,-5.499999970E-4,1.718750037E-2
2.711303786E1,-7.837500423E-3,-1.924999990E-3,1.484999992E-2
2.713303786E1,-6.737499963E-3,-3.024999984E-3,9.487500414E-3
2.715303786E1,-5.224999972E-3,-1.237499993E-3,4.399999976E-3
2.717303786E1,0.000000000E0,0.000000000E0,0.000000000E0
2.719303786E1,7.424999960E-3,3.024999984E-3,-2.144999988E-2
2.721303786E1,1.594999991E-2,5.499999970E-3,-3.657500073E-2
2.723303786E1,1.966249943E-2,7.562499959E-3,-4.248749837E-2
2.725303786E1,2.502499893E-2,5.362499971E-3,-5.087500066E-2
2.727303786E1,2.887500077E-2,2.337499987E-3,-5.719999969E-2
2.729303786E1,3.024999984E-2,5.499999970E-4,-5.926249921E-2
2.731303786E1,2.777500078E-2,-6.874999963E-4,-5.376249924E-2
2.733303786E1,2.241249941E-2,2.749999985E-4,-4.344999790E-2
2.735303786E1,2.048750035E-2,2.887499984E-3,-3.904999793E-2
2.737303786E1,2.241249941E-2,4.399999976E-3,-4.069999978E-2
2.739303786E1,2.378750034E-2,3.299999982E-3,-4.372499883E-2
2.741303786E1,1.594999991E-2,9.624999948E-4,-2.956249937E-2
2.743303786E1,-1.924999990E-3,-3.162499983E-3,3.299999982E-3
2.745303786E1,-4.812499974E-3,-4.124999978E-3,5.774999969E-3
2.747303786E1,-3.849999979E-3,-2.612499986E-3,-1.374999993E-3
2.749303786E1,5.087499972E-3,1.787499990E-3,-2.584999986E-2
2.751303786E1,8.524999954E-3,3.712499980E-3,-3.341250122E-2
2.753303786E1,1.182499994E-2,6.599999964E-3,-3.863750026E-2
2.755303786E1,1.182499994E-2,4.674999975E-3,-3.355000168E-2
2.757303786E1,1.141249947E-2,4.537499975E-3,-3.162499890E-2
2.759303786E1,5.912499968E-3,9.624999948E-4,-1.594999991E-2
2.761303786E1,-1.773750037E-2,-4.537499975E-3,3.011249937E-2
2.763303786E1,-2.254999988E-2,-4.262499977E-3,4.015000165E-2
2.765303786E1,-2.447500080E-2,-3.437499981E-3,4.496249929E-2
2.767303786E1,-2.969999984E-2,-2.337499987E-3,5.499999970E-2
2.769303786E1,-3.382499889E-2,-2.474999987E-3,6.324999779E-2
2.771303786E1,-4.179999977E-2,-2.887499984E-3,7.851249725E-2
2.773303786E1,-5.953750014E-2,-3.024999984E-3,1.135749966E-1
2.775303786E1,-6.270000339E-2,-3.849999979E-3,1.207249984E-1
2.777303786E1,-6.297499686E-2,-6.187499966E-3,1.227874979E-1
2.779303786E1,-6.393750012E-2,-5.499999970E-3,1.215500012E-1
2.781303786E1,-6.283749640E-2,-4.674999975E-3,1.186624989E-1
2.783303786E1,-5.733750015E-2,-5.362499971E-3,1.079374999E-1
2.785303786E1,-4.276249930E-2,-6.049999967E-3,8.167500049E-2
2.787303786E1,-3.781250119E-2,-6.049999967E-3,7.273750007E-2
2.789303786E1,-2.791249938E-2,-6.324999966E-3,5.362499878E-2
2.791303786E1,-9.487500414E-3,-3.574999981E-3,1.663750038E-2
2.793303786E1,-5.912499968E-3,-2.337499987E-3,1.017499994E-2
2.795303786E1,-2.337499987E-3,-9.624999948E-4,4.124999978E-3
2.797303786E1,2.337499987E-3,9.624999948E-4,-4.262499977E-3
2.799303786E1,5.774999969E-3,1.374999993E-3,-1.044999994E-2
2.801303786E1,1.237499993E-2,2.474999987E-3,-1.911249943E-2
2.803303786E1,2.199999988E-2,1.649999991E-3,-3.519999981E-2
2.805303786E1,3.038750030E-2,1.374999993E-4,-5.128749833E-2
2.807303786E1,2.914999984E-2,4.124999978E-3,-5.169999972E-2
2.809303786E1,2.681249939E-2,5.087499972E-3,-4.839999974E-2
2.811303786E1,2.158750035E-2,6.324999966E-3,-4.564999789E-2
2.813303786E1,1.993750036E-2,5.499999970E-3,-4.441250116E-2
2.815303786E1,2.062499896E-2,5.637499969E-3,-4.606249928E-2
2.817303786E1,2.406249940E-2,3.574999981E-3,-5.279999971E-2
2.819303786E1,2.777500078E-2,-9.624999948E-4,-5.637500063E-2
2.821303786E1,2.969999984E-2,-5.499999970E-4,-5.871250108E-2
2.823303786E1,3.423750028E-2,8.249999955E-4,-6.613750011E-2
2.825303786E1,3.107500076E-2,5.912499968E-3,-6.063750014E-2
2.827303786E1,2.846249938E-2,7.012499962E-3,-5.513750017E-2
2.829303786E1,2.667500079E-2,7.012499962E-3,-5.156249925E-2
2.831303786E1,3.299999982E-2,7.012499962E-3,-6.242499873E-2
2.833303786E1,3.616249934E-2,6.737499963E-3,-6.806249917E-2
2.835303786E1,3.808749840E-2,6.187499966E-3,-7.095000148E-2
2.837303786E1,3.519999981E-2,7.287499961E-3,-5.623750016E-2
2.839303786E1,3.341250122E-2,6.874999963E-3,-4.619999975E-2
2.841303786E1,2.997500077E-2,5.499999970E-3,-3.423750028E-2
2.843303786E1,1.072499994E-2,3.574999981E-3,-3.987499978E-3
2.845303786E1,2.887499984E-3,8.249999955E-4,7.974999957E-3
2.847303786E1,-1.182499994E-2,-5.087499972E-3,3.203750029E-2
2.849303786E1,-2.598750032E-2,-1.072499994E-2,5.335000157E-2
2.851303786E1,-2.859999985E-2,-1.072499994E-2,5.527500063E-2
2.853303786E1,-2.956249937E-2,-9.074999951E-3,5.623750016E-2
2.855303786E1,-2.447500080E-2,-6.874999963E-3,4.578749835E-2
2.857303786E1,-2.227500081E-2,-6.187499966E-3,4.179999977E-2
2.859303786E1,-1.746249944E-2,-7.012499962E-3,3.313750029E-2
2.861303786E1,-1.168750040E-2,-1.154999994E-2,2.241249941E-2
2.863303786E1,-8.937500417E-3,-1.168750040E-2,1.691249944E-2
2.865303786E1,-1.649999991E-3,-9.487500414E-3,-1.374999993E-3
2.867303786E1,6.049999967E-3,-5.087499972E-3,-1.979999989E-2
2.869303786E1,8.937500417E-3,-4.124999978E-3,-2.392499894E-2
2.871303786E1,9.762499481E-3,-1.649999991E-3,-1.814999990E-2
2.873303786E1,1.031249948E-2,0.000000000E0,-6.049999967E-3
2.875303786E1,1.182499994E-2,-5.499999970E-4,-1.649999991E-3
2.877303786E1,1.361249946E-2,-1.374999993E-3,2.199999988E-3
2.879303786E1,9.762499481E-3,-4.949999973E-3,4.674999975E-3
2.881303786E1,7.837500423E-3,-6.049999967E-3,4.674999975E-3
2.883303786E1,-2.749999985E-3,-6.049999967E-3,2.144999988E-2
2.885303786E1,-2.722499892E-2,-6.324999966E-3,6.215000153E-2
2.887303786E1,-3.052499890E-2,-6.187499966E-3,6.751249731E-2
2.889303786E1,-3.286249936E-2,-6.462499965E-3,6.984999776E-2
2.891303786E1,-2.681249939E-2,-7.012499962E-3,5.527500063E-2
2.893303786E1,-2.419999987E-2,-7.974999957E-3,4.908749834E-2
2.895303786E1,-1.759999990E-2,-8.662499487E-3,3.203750029E-2
2.897303786E1,-1.319999993E-2,-7.974999957E-3,1.374999993E-3
2.899303786E1,-1.182499994E-2,-6.737499963E-3,-2.749999985E-3
2.901303786E1,-9.899999946E-3,-4.124999978E-3,-5.362499971E-3
2.903303786E1,-1.113750041E-2,7.562499959E-3,1.031249948E-2
2.905303786E1,-1.416249946E-2,1.471249945E-2,1.787500083E-2
2.907303786E1,-1.416249946E-2,1.801249944E-2,2.089999989E-2
2.909303786E1,-1.017499994E-2,1.319999993E-2,1.333750039E-2
2.911303786E1,-7.974999957E-3,1.141249947E-2,9.624999948E-3
2.913303786E1,3.712499980E-3,7.837500423E-3,-1.072499994E-2
2.915303786E1,1.209999993E-2,4.399999976E-3,-2.543750033E-2
2.917303786E1,2.681249939E-2,4.124999978E-4,-5.018749833E-2
2.919303786E1,3.739999980E-2,-8.249999955E-4,-5.912499875E-2
2.921303786E1,3.698749840E-2,-1.099999994E-3,-5.761250108E-2
2.923303786E1,3.602499887E-2,5.499999970E-4,-5.224999785E-2
2.925303786E1,3.533750027E-2,-9.624999948E-4,-5.266249925E-2
2.927303786E1,3.451250121E-2,-2.749999985E-3,-5.307500064E-2
2.929303786E1,3.011249937E-2,-7.699999958E-3,-4.881250113E-2
2.931303786E1,2.846249938E-2,-1.113750041E-2,-4.619999975E-2
2.933303786E1,2.763750032E-2,-9.349999949E-3,-4.303750023E-2
2.935303786E1,2.364999987E-2,-5.637499969E-3,-2.777500078E-2
2.937303786E1,1.471249945E-2,-3.574999981E-3,-1.237499993E-2
2.939303786E1,1.058750041E-2,2.337499987E-3,-8.662499487E-3
2.941303786E1,6.462499965E-3,1.182499994E-2,-3.299999982E-3
2.943303786E1,-3.437499981E-3,1.058750041E-2,6.599999964E-3
2.945303786E1,-1.182499994E-2,1.058750041E-2,1.869999990E-2
2.947303786E1,-3.079999983E-2,5.224999972E-3,4.895000160E-2
2.949303786E1,-4.138749838E-2,6.874999963E-4,6.448750198E-2
2.951303786E1,-4.069999978E-2,-2.337499987E-3,6.352499872E-2
2.953303786E1,-3.808749840E-2,-7.287499961E-3,5.912499875E-2
2.955303786E1,-3.506249934E-2,-1.278750040E-2,4.949999973E-2
2.957303786E1,-3.629999980E-2,-1.306249946E-2,4.826249927E-2
2.959303786E1,-4.028749838E-2,-1.251249947E-2,4.853750020E-2
2.961303786E1,-4.179999977E-2,-1.072499994E-2,4.881250113E-2
2.963303786E1,-3.918749839E-2,-1.031249948E-2,4.578749835E-2
2.965303786E1,-2.928750031E-2,-1.058750041E-2,3.066249937E-2
2.967303786E1,-1.251249947E-2,-1.251249947E-2,8.387500420E-3
2.969303786E1,-2.749999985E-4,-1.196249947E-2,-1.209999993E-2
2.971303786E1,2.887500077E-2,-1.196249947E-2,-6.366249919E-2
2.973303786E1,4.551250115E-2,-8.799999952E-3,-9.033749998E-2
2.975303786E1,4.661250114E-2,-6.874999963E-3,-9.184999764E-2
2.977303786E1,4.812499881E-2,-4.674999975E-3,-9.391249716E-2
2.979303786E1,4.771250114E-2,-3.574999981E-3,-9.184999764E-2
2.981303786E1,4.839999974E-2,-3.024999984E-3,-9.267500043E-2
2.983303786E1,4.977500066E-2,-2.199999988E-3,-9.459999949E-2
2.985303786E1,5.046249926E-2,-3.574999981E-3,-8.758749813E-2
2.987303786E1,4.895000160E-2,-3.712499980E-3,-8.401250094E-2
2.989303786E1,4.358749837E-2,-2.199999988E-3,-6.833750010E-2
2.991303786E1,2.736249939E-2,-2.199999988E-3,-3.093750030E-2
2.993303786E1,1.828750037E-2,-2.062499989E-3,-1.677500084E-2
2.995303786E1,3.024999984E-3,-8.249999955E-4,3.849999979E-3
2.997303786E1,-2.516249940E-2,-2.337499987E-3,5.706249923E-2
2.999303786E1,-3.038750030E-2,-3.299999982E-3,6.558749825E-2
3.001303786E1,-3.547500074E-2,-4.537499975E-3,7.301250100E-2
3.003303786E1,-3.464999795E-2,-5.087499972E-3,6.710000336E-2
3.005303786E1,-3.258749843E-2,-4.949999973E-3,6.270000339E-2
3.007303786E1,-2.859999985E-2,-5.087499972E-3,5.664999783E-2
3.009303786E1,-2.832499892E-2,-3.024999984E-3,4.977500066E-2
3.011303786E1,-2.859999985E-2,-2.887499984E-3,4.688749835E-2
3.013303786E1,-2.832499892E-2,-2.062499989E-3,3.987500072E-2
3.015303786E1,-2.034999989E-2,1.649999991E-3,1.058750041E-2
3.017303786E1,-1.361249946E-2,2.337499987E-3,1.374999993E-3
3.019303786E1,-1.374999993E-3,6.874999963E-3,-1.553750038E-2
3.021303786E1,6.874999963E-3,6.874999963E-3,-2.942499891E-2
3.023303786E1,2.557500079E-2,7.699999958E-3,-5.926249921E-2
3.025303786E1,3.602499887E-2,7.012499962E-3,-6.984999776E-2
3.027303786E1,3.547500074E-2,6.324999966E-3,-6.792499870E-2
3.029303786E1,3.492499888E-2,4.124999978E-3,-6.710000336E-2
3.031303786E1,4.124999791E-2,4.399999976E-3,-7.864999771E-2
3.033303786E1,4.372499883E-2,5.087499972E-3,-8.208750188E-2
3.035303786E1,4.606249928E-2,5.774999969E-3,-8.387500048E-2
3.037303786E1,3.671250120E-2,3.299999982E-3,-6.393750012E-2
3.039303786E1,3.011249937E-2,1.924999990E-3,-5.224999785E-2
3.041303786E1,2.103750035E-2,-2.062499989E-3,-3.629999980E-2
3.043303786E1,-3.437499981E-3,-8.524999954E-3,7.562499959E-3
3.045303786E1,-1.347499993E-2,-7.837500423E-3,2.529999986E-2
3.047303786E1,-2.626249939E-2,-7.149999961E-3,4.496249929E-2
3.049303786E1,-2.268750034E-2,-1.512499992E-3,3.258749843E-2
3.051303786E1,-1.979999989E-2,1.512499992E-3,2.749999985E-2
3.053303786E1,-1.292499993E-2,5.087499972E-3,1.539999992E-2
3.055303786E1,-6.874999963E-3,3.162499983E-3,6.187499966E-3
3.057303786E1,-9.212499484E-3,2.612499986E-3,1.113750041E-2
3.059303786E1,-2.378750034E-2,-9.624999948E-4,3.946249932E-2
3.061303786E1,-3.684999794E-2,-4.812499974E-3,6.792499870E-2
3.063303786E1,-3.272499889E-2,-3.987499978E-3,6.159999967E-2
3.065303786E1,-2.227500081E-2,-3.024999984E-3,4.331250116E-2
3.067303786E1,-4.674999975E-3,-4.124999978E-4,9.899999946E-3
3.069303786E1,3.712499980E-3,1.237499993E-3,-5.637499969E-3
3.071303786E1,3.437499981E-3,1.787499990E-3,-5.774999969E-3
3.073303786E1,0.000000000E0,0.000000000E0,0.000000000E0
3.075303786E1,0.000000000E0,0.000000000E0,0.000000000E0
3.077303786E1,-5.499999970E-4,-2.612499986E-3,4.124999978E-3
3.079303786E1,-8.112499490E-3,-3.849999979E-3,1.594999991E-2
3.081303786E1,-1.237499993E-2,-3.849999979E-3,2.254999988E-2
3.083303786E1,-2.131249942E-2,-3.437499981E-3,3.203750029E-2
3.085303786E1,-3.038750030E-2,1.512499992E-3,4.702499881E-2
3.087303786E1,-3.272499889E-2,3.849999979E-3,5.376249924E-2
3.089303786E1,-3.891250119E-2,4.399999976E-3,6.806249917E-2
3.091303786E1,-4.166249931E-2,1.649999991E-3,7.961250097E-2
3.093303786E1,-3.767500073E-2,1.924999990E-3,7.755000144E-2
3.095303786E1,-2.681249939E-2,2.062499989E-3,6.146249920E-2
3.097303786E1,-2.254999988E-2,3.437499981E-3,4.661250114E-2
3.099303786E1,-2.103750035E-2,4.124999978E-3,4.276249930E-2
3.101303786E1,-1.471249945E-2,7.424999960E-3,3.038750030E-2
3.103303786E1,-7.974999957E-3,1.251249947E-2,2.131249942E-2
3.105303786E1,-2.612499986E-3,1.292499993E-2,1.828750037E-2
3.107303786E1,9.762499481E-3,1.182499994E-2,1.787499990E-3
3.109303786E1,1.993750036E-2,1.044999994E-2,-2.131249942E-2
3.111303786E1,1.966249943E-2,7.974999957E-3,-2.364999987E-2
3.113303786E1,1.869999990E-2,4.399999976E-3,-2.433750033E-2
3.115303786E1,1.292499993E-2,9.624999948E-4,-2.804999985E-2
3.117303786E1,7.287499961E-3,0.000000000E0,-2.474999987E-2
3.119303786E1,3.162499983E-3,5.499999970E-4,-2.158750035E-2
3.121303786E1,3.987499978E-3,5.499999970E-4,-2.309999987E-2
3.123303786E1,3.574999981E-3,4.124999978E-4,-2.048750035E-2
3.125303786E1,7.012499962E-3,-9.624999948E-4,-2.186249942E-2
3.127303786E1,6.874999963E-3,-2.337499987E-3,-2.007500082E-2
3.129303786E1,4.537499975E-3,-3.299999982E-3,-1.443750039E-2
3.131303786E1,-6.187499966E-3,-3.712499980E-3,8.249999955E-3
3.133303786E1,-9.212499484E-3,-3.162499983E-3,1.388750039E-2
3.135303786E1,-1.127499994E-2,-3.299999982E-3,1.856249943E-2
3.137303786E1,-8.524999954E-3,-1.099999994E-3,1.759999990E-2
3.139303786E1,-7.424999960E-3,-2.749999985E-4,1.883750036E-2
3.141303786E1,-9.349999949E-3,1.237499993E-3,2.502499893E-2
3.143303786E1,-2.406249940E-2,-9.624999948E-4,5.389999971E-2
3.145303786E1,-2.791249938E-2,-1.787499990E-3,6.077500060E-2
3.147303786E1,-3.629999980E-2,-3.024999984E-3,7.287500054E-2
3.149303786E1,-4.221250117E-2,-5.912499968E-3,7.424999774E-2
3.151303786E1,-4.138749838E-2,-5.499999970E-3,6.696250290E-2
3.153303786E1,-3.932499886E-2,-3.712499980E-3,6.297499686E-2
3.155303786E1,-3.368749842E-2,-4.949999973E-3,5.843750015E-2
3.157303786E1,-3.231250122E-2,-5.637499969E-3,5.747500062E-2
3.159303786E1,-2.914999984E-2,-5.499999970E-3,6.008749828E-2
3.161303786E1,-2.213750035E-2,-5.362499971E-3,4.812499881E-2
3.163303786E1,-1.814999990E-2,-3.849999979E-3,3.973750025E-2
3.165303786E1,-6.049999967E-3,-1.787499990E-3,1.718750037E-2
3.167303786E1,9.762499481E-3,4.674999975E-3,-1.306249946E-2
3.169303786E1,1.127499994E-2,5.912499968E-3,-1.636249945E-2
3.171303786E1,1.553750038E-2,7.287499961E-3,-1.732499897E-2
3.173303786E1,1.512499992E-2,5.087499972E-3,-1.484999992E-2
3.175303786E1,1.457499992E-2,3.574999981E-3,-1.429999992E-2
3.177303786E1,1.649999991E-2,-1.099999994E-3,-2.213750035E-2
3.179303786E1,2.873750031E-2,1.649999991E-3,-5.073750019E-2
3.181303786E1,3.561250120E-2,3.437499981E-3,-6.723749638E-2
3.183303786E1,5.115000159E-2,6.187499966E-3,-1.025749967E-1
3.185303786E1,6.242499873E-2,8.662499487E-3,-1.274625063E-1
3.187303786E1,6.242499873E-2,8.387500420E-3,-1.275999993E-1
3.189303786E1,5.692499876E-2,6.874999963E-3,-1.194875017E-1
3.191303786E1,4.633750021E-2,-5.499999970E-4,-9.831249714E-2
3.193303786E1,4.399999976E-2,-3.299999982E-3,-9.404999763E-2
3.195303786E1,4.262499884E-2,-7.149999961E-3,-9.116250277E-2
3.197303786E1,3.877500072E-2,-5.912499968E-3,-8.030000329E-2
3.199303786E1,3.616249934E-2,-4.812499974E-3,-7.411249727E-2
3.201303786E1,3.121249937E-2,-4.262499977E-3,-6.201250106E-2
3.203303786E1,1.801249944E-2,-5.362499971E-3,-3.052499890E-2
3.205303786E1,1.031249948E-2,-5.774999969E-3,-1.704999991E-2
3.207303786E1,-1.113750041E-2,-9.762499481E-3,2.117500082E-2
3.209303786E1,-4.303750023E-2,-1.979999989E-2,7.988750190E-2
3.211303786E1,-4.675000161E-2,-1.952499896E-2,8.717499673E-2
3.213303786E1,-5.046249926E-2,-1.608750038E-2,9.790000319E-2
3.215303786E1,-4.812499881E-2,-1.237499993E-2,1.002374962E-1
3.217303786E1,-4.619999975E-2,-1.017499994E-2,9.624999762E-2
3.219303786E1,-4.675000161E-2,-7.149999961E-3,9.281250089E-2
3.221303786E1,-4.331250116E-2,-6.324999966E-3,8.662500232E-2
3.223303786E1,-4.111250117E-2,-6.462499965E-3,8.195000142E-2
3.225303786E1,-4.193750024E-2,-6.187499966E-3,8.387500048E-2
3.227303786E1,-3.176249936E-2,-6.324999966E-3,6.599999964E-2
3.229303786E1,-2.612499893E-2,-7.012499962E-3,5.555000156E-2
3.231303786E1,-1.856249943E-2,-7.699999958E-3,4.042499885E-2
3.233303786E1,-8.524999954E-3,-3.712499980E-3,1.979999989E-2
3.235303786E1,-6.599999964E-3,-3.162499983E-3,1.526249945E-2
3.237303786E1,-7.287499961E-3,-2.199999988E-3,1.251249947E-2
3.239303786E1,-7.424999960E-3,1.374999993E-4,1.278750040E-2
3.241303786E1,-6.049999967E-3,-2.749999985E-4,1.154999994E-2
3.243303786E1,-4.537499975E-3,2.062499989E-3,8.387500420E-3
3.245303786E1,-3.574999981E-3,2.337499987E-3,5.499999970E-3
3.247303786E1,-5.774999969E-3,1.237499993E-3,7.837500423E-3
3.249303786E1,-1.306249946E-2,1.099999994E-3,6.737499963E-3
3.251303786E1,-1.581249945E-2,1.237499993E-3,6.049999967E-3
3.253303786E1,-1.924999990E-2,1.924999990E-3,1.223750040E-2
3.255303786E1,-1.677500084E-2,4.124999978E-3,1.333750039E-2
3.257303786E1,-1.471249945E-2,2.887499984E-3,1.058750041E-2
3.259303786E1,-1.044999994E-2,9.624999948E-4,6.049999967E-3
3.261303786E1,3.712499980E-3,1.512499992E-3,-2.034999989E-2
3.263303786E1,6.599999964E-3,-4.124999978E-4,-2.681249939E-2
3.265303786E1,6.874999963E-3,-2.337499987E-3,-2.529999986E-2
3.267303786E1,7.287499961E-3,-1.512499992E-3,-2.172499895E-2
3.269303786E1,8.937500417E-3,-8.249999955E-4,-2.337500080E-2
3.271303786E1,1.306249946E-2,-1.237499993E-3,-2.378750034E-2
3.273303786E1,1.402499992E-2,-3.162499983E-3,-1.911249943E-2
3.275303786E1,1.759999990E-2,-4.262499977E-3,-2.406249940E-2
3.277303786E1,3.011249937E-2,-3.987499978E-3,-4.564999789E-2
3.279303786E1,3.341250122E-2,-3.162499983E-3,-5.472499877E-2
3.281303786E1,2.749999985E-2,-1.787499990E-3,-4.303750023E-2
3.283303786E1,1.938750036E-2,2.749999985E-4,-2.708750032E-2
3.285303786E1,1.649999991E-2,-6.874999963E-4,-2.516249940E-2
3.287303786E1,1.732499897E-2,-4.124999978E-4,-2.777500078E-2
3.289303786E1,2.268750034E-2,1.374999993E-4,-4.344999790E-2
3.291303786E1,3.753750026E-2,4.124999978E-4,-7.658749819E-2
3.293303786E1,3.987500072E-2,-0.000000000E0,-7.975000143E-2
3.295303786E1,3.616249934E-2,-1.374999993E-4,-7.315000147E-2
3.297303786E1,2.364999987E-2,1.099999994E-3,-4.798749834E-2
3.299303786E1,2.186249942E-2,1.649999991E-3,-4.427500069E-2
3.301303786E1,1.842499897E-2,1.787499990E-3,-3.616249934E-2
3.303303786E1,1.264999993E-2,4.124999978E-4,-2.557500079E-2
3.305303786E1,9.762499481E-3,1.374999993E-4,-2.186249942E-2
3.307303786E1,-5.499999970E-4,-9.624999948E-4,-6.874999963E-3
3.309303786E1,-1.113750041E-2,-2.337499987E-3,1.429999992E-2
3.311303786E1,-1.649999991E-2,-2.474999987E-3,2.571249940E-2
3.313303786E1,-2.529999986E-2,-2.474999987E-3,4.331250116E-2
3.315303786E1,-2.804999985E-2,4.124999978E-4,4.771250114E-2
3.317303786E1,-2.859999985E-2,1.374999993E-3,4.757500067E-2
3.319303786E1,-1.814999990E-2,3.574999981E-3,2.708750032E-2
3.321303786E1,-6.324999966E-3,2.337499987E-3,1.374999993E-3
3.323303786E1,-6.462499965E-3,2.199999988E-3,9.624999948E-4
3.325303786E1,-9.624999948E-3,1.924999990E-3,1.099999994E-3
3.327303786E1,0.000000000E0,0.000000000E0,0.000000000E0
3.329303786E1,-1.099999994E-3,6.874999963E-4,-6.737499963E-3
3.331303786E1,1.072499994E-2,1.787499990E-3,-2.351249941E-2
3.333303786E1,2.034999989E-2,2.199999988E-3,-4.056249931E-2
3.335303786E1,2.158750035E-2,1.649999991E-3,-4.179999977E-2
3.337303786E1,1.622499898E-2,4.124999978E-4,-2.873750031E-2
3.339303786E1,8.799999952E-3,-5.499999970E-3,-1.141249947E-2
3.341303786E1,3.024999984E-3,-6.049999967E-3,1.374999993E-3
3.343303786E1,-2.461249940E-2,-8.387500420E-3,5.912499875E-2
3.345303786E1,-2.309999987E-2,-6.874999963E-3,5.926249921E-2
3.347303786E1,-2.131249942E-2,-5.362499971E-3,5.279999971E-2
3.349303786E1,-1.883750036E-2,-1.374999993E-3,4.702499881E-2
3.351303786E1,-2.007500082E-2,2.749999985E-4,4.826249927E-2
3.353303786E1,-2.186249942E-2,1.649999991E-3,4.936249927E-2
3.355303786E1,-1.993750036E-2,6.874999963E-4,4.248749837E-2
3.357303786E1,-2.062499896E-2,1.374999993E-4,4.386249930E-2
3.359303786E1,-2.007500082E-2,2.749999985E-4,4.207500070E-2
3.361303786E1,-4.812499974E-3,9.624999948E-4,1.292499993E-2
3.363303786E1,5.499999970E-4,2.337499987E-3,4.262499977E-3
3.365303786E1,6.599999964E-3,3.712499980E-3,-7.974999957E-3
3.367303786E1,1.072499994E-2,4.262499977E-3,-1.924999990E-2
3.369303786E1,8.387500420E-3,5.499999970E-3,-1.952499896E-2
3.371303786E1,7.287499961E-3,8.662499487E-3,-2.323750034E-2
3.373303786E1,1.237499993E-2,7.699999958E-3,-2.804999985E-2
3.375303786E1,1.581249945E-2,6.737499963E-3,-3.299999982E-2
3.377303786E1,2.268750034E-2,5.774999969E-3,-3.877500072E-2
3.379303786E1,5.802499875E-2,6.462499965E-3,-8.607500046E-2
3.381303786E1,6.655000150E-2,7.424999960E-3,-1.006499976E-1
3.383303786E1,7.136250287E-2,8.112499490E-3,-1.134374961E-1
3.385303786E1,5.898749828E-2,1.223750040E-2,-9.735000134E-2
3.387303786E1,5.321250111E-2,1.347499993E-2,-8.827500045E-2
3.389303786E1,4.399999976E-2,1.209999993E-2,-7.177499682E-2
3.391303786E1,4.207500070E-2,7.974999957E-3,-6.187500060E-2
3.393303786E1,4.124999791E-2,6.737499963E-3,-6.063750014E-2
3.395303786E1,3.657500073E-2,3.024999984E-3,-5.555000156E-2
3.397303786E1,2.598750032E-2,8.249999955E-4,-4.372499883E-2
3.399303786E1,2.103750035E-2,1.649999991E-3,-3.959999979E-2
3.401303786E1,5.087499972E-3,1.649999991E-3,-2.708750032E-2
3.403303786E1,-2.461249940E-2,4.124999978E-4,1.374999993E-2
3.405303786E1,-3.519999981E-2,-0.000000000E0,3.533750027E-2
3.407303786E1,-4.812499881E-2,-1.787499990E-3,6.613750011E-2
3.409303786E1,-4.427500069E-2,-1.649999991E-3,6.599999964E-2
3.411303786E1,-4.083750024E-2,-1.512499992E-3,6.215000153E-2
3.413303786E1,-3.464999795E-2,-3.574999981E-3,5.362499878E-2
3.415303786E1,-2.777500078E-2,-5.499999970E-3,5.321250111E-2
3.417303786E1,-2.653750032E-2,-5.362499971E-3,5.596249923E-2
3.419303786E1,-2.777500078E-2,-6.187499966E-3,6.173750013E-2
3.421303786E1,-2.859999985E-2,-6.462499965E-3,7.713750005E-2
3.423303786E1,-2.708750032E-2,-6.324999966E-3,7.851249725E-2
3.425303786E1,-2.406249940E-2,-6.324999966E-3,7.163749635E-2
3.427303786E1,-1.471249945E-2,-5.362499971E-3,5.335000157E-2
3.429303786E1,-1.251249947E-2,-5.774999969E-3,4.743750021E-2
3.431303786E1,-7.149999961E-3,-7.149999961E-3,3.519999981E-2
3.433303786E1,9.212499484E-3,-5.087499972E-3,3.024999984E-3
3.435303786E1,1.278750040E-2,-5.087499972E-3,-5.224999972E-3
3.437303786E1,1.842499897E-2,-3.712499980E-3,-2.048750035E-2
3.439303786E1,2.584999986E-2,-1.787499990E-3,-4.482499883E-2
3.441303786E1,2.749999985E-2,6.874999963E-4,-4.991250113E-2
3.443303786E1,2.969999984E-2,4.674999975E-3,-5.816249922E-2
3.445303786E1,2.983750030E-2,3.712499980E-3,-5.719999969E-2
3.447303786E1,2.983750030E-2,3.712499980E-3,-5.719999969E-2
3.449303786E1,1.828750037E-2,5.224999972E-3,-3.616249934E-2
3.451303786E1,1.141249947E-2,2.887499984E-3,-2.199999988E-2
3.453303786E1,8.799999952E-3,2.612499986E-3,-1.732499897E-2
3.455303786E1,-6.874999963E-3,3.299999982E-3,1.044999994E-2
3.457303786E1,-1.306249946E-2,1.924999990E-3,1.883750036E-2
3.459303786E1,-2.488750033E-2,1.237499993E-3,3.244999796E-2
3.461303786E1,-2.928750031E-2,8.249999955E-4,4.083750024E-2
3.463303786E1,-3.258749843E-2,5.499999970E-4,4.289999977E-2
3.465303786E1,-3.629999980E-2,-3.024999984E-3,4.606249928E-2
3.467303786E1,-4.358749837E-2,-4.949999973E-3,6.448750198E-2
3.469303786E1,-4.853750020E-2,-5.087499972E-3,7.397499681E-2
3.471303786E1,-5.706249923E-2,-6.599999964E-3,8.951249719E-2
3.473303786E1,-5.197500065E-2,-2.887499984E-3,8.291249722E-2
3.475303786E1,-4.537500069E-2,-8.249999955E-4,7.301250100E-2
3.477303786E1,-3.079999983E-2,1.374999993E-4,4.812499881E-2
3.479303786E1,-1.814999990E-2,-9.624999948E-4,2.942499891E-2
3.481303786E1,-1.264999993E-2,-1.237499993E-3,2.254999988E-2
3.483303786E1,0.000000000E0,0.000000000E0,0.000000000E0
3.485303786E1,1.581249945E-2,-1.924999990E-3,-1.787500083E-2
3.487303786E1,2.021249942E-2,-6.874999963E-4,-2.131249942E-2
3.489303786E1,3.011249937E-2,1.649999991E-3,-3.547500074E-2
3.491303786E1,4.606249928E-2,3.849999979E-3,-6.586249918E-2
3.493303786E1,5.376249924E-2,4.949999973E-3,-8.222500235E-2
3.495303786E1,6.655000150E-2,5.774999969E-3,-1.091749966E-1
3.497303786E1,6.476250291E-2,4.124999978E-4,-1.132999957E-1
3.499303786E1,5.871250108E-2,-1.649999991E-3,-1.039500013E-1
3.501303786E1,4.413750023E-2,-5.774999969E-3,-8.318749815E-2
3.503303786E1,2.694999985E-2,-4.262499977E-3,-5.871250108E-2
3.505303786E1,2.103750035E-2,-4.537499975E-3,-5.032499880E-2
3.507303786E1,1.086249948E-2,-3.437499981E-3,-3.327500075E-2
3.509303786E1,-1.154999994E-2,-2.887499984E-3,1.649999991E-3
3.511303786E1,-1.952499896E-2,-3.299999982E-3,1.746249944E-2
3.513303786E1,-3.451250121E-2,-5.499999970E-3,4.716249928E-2
3.515303786E1,-4.661250114E-2,-5.637499969E-3,6.943749636E-2
3.517303786E1,-4.867500067E-2,-7.424999960E-3,7.452499866E-2
3.519303786E1,-4.867500067E-2,-7.562499959E-3,7.727500051E-2
3.521303786E1,-4.798749834E-2,-6.324999966E-3,8.030000329E-2
3.523303786E1,-4.606249928E-2,-7.287499961E-3,7.919999957E-2
3.525303786E1,-4.179999977E-2,-6.049999967E-3,7.369999588E-2
3.527303786E1,-3.451250121E-2,-5.224999972E-3,6.888750196E-2
3.529303786E1,-3.189999983E-2,-4.812499974E-3,6.668750197E-2
3.531303786E1,-2.653750032E-2,-7.562499959E-3,6.270000339E-2
3.533303786E1,-6.737499963E-3,-7.699999958E-3,2.461249940E-2
3.535303786E1,1.374999993E-4,-7.699999958E-3,9.212499484E-3
3.537303786E1,8.524999954E-3,-4.812499974E-3,-9.762499481E-3
3.539303786E1,-0.000000000E0,-2.749999985E-3,-7.974999957E-3
3.541303786E1,-2.749999985E-3,-3.712499980E-3,-8.662499487E-3
3.543303786E1,-4.262499977E-3,-2.062499989E-3,-4.949999973E-3
3.545303786E1,-1.223750040E-2,3.299999982E-3,5.499999970E-3
3.547303786E1,-1.388750039E-2,5.087499972E-3,9.762499481E-3
3.549303786E1,-1.952499896E-2,6.599999964E-3,2.516249940E-2
3.551303786E1,-1.856249943E-2,8.112499490E-3,2.529999986E-2
3.553303786E1,-1.636249945E-2,6.599999964E-3,2.186249942E-2
3.555303786E1,-1.278750040E-2,6.049999967E-3,1.663750038E-2
3.557303786E1,-7.562499959E-3,4.124999978E-3,1.086249948E-2
3.559303786E1,-3.987499978E-3,3.162499983E-3,8.387500420E-3
3.561303786E1,-4.124999978E-4,2.612499986E-3,1.264999993E-2
3.563303786E1,7.287499961E-3,2.749999985E-4,1.072499994E-2
3.565303786E1,8.249999955E-3,-8.249999955E-4,5.224999972E-3
3.567303786E1,1.526249945E-2,-4.537499975E-3,-5.912499968E-3
3.569303786E1,1.622499898E-2,-5.362499971E-3,-8.249999955E-3
3.571303786E1,1.759999990E-2,-5.224999972E-3,-1.099999994E-2
3.573303786E1,2.048750035E-2,-5.362499971E-3,-2.254999988E-2
3.575303786E1,2.103750035E-2,-6.874999963E-3,-2.516249940E-2
3.577303786E1,1.966249943E-2,-8.799999952E-3,-2.626249939E-2
3.579303786E1,1.581249945E-2,-7.149999961E-3,-2.419999987E-2
3.581303786E1,1.484999992E-2,-6.049999967E-3,-2.309999987E-2
3.583303786E1,1.223750040E-2,-4.674999975E-3,-2.227500081E-2
3.585303786E1,1.168750040E-2,-3.299999982E-3,-2.804999985E-2
3.587303786E1,1.223750040E-2,-1.374999993E-4,-3.162499890E-2
3.589303786E1,1.512499992E-2,6.049999967E-3,-3.588749841E-2
3.591303786E1,1.732499897E-2,7.699999958E-3,-3.849999979E-2
3.593303786E1,1.952499896E-2,7.424999960E-3,-4.331250116E-2
3.595303786E1,2.282499894E-2,6.599999964E-3,-5.169999972E-2
3.597303786E1,2.034999989E-2,5.774999969E-3,-5.348749831E-2
3.599303786E1,1.869999990E-2,5.499999970E-3,-5.266249925E-2
3.601303786E1,1.292499993E-2,4.537499975E-3,-4.276249930E-2
3.603303786E1,1.374999993E-3,4.399999976E-3,-2.859999985E-2
3.605303786E1,-1.099999994E-3,4.124999978E-3,-2.639999986E-2
3.607303786E1,-2.337499987E-3,5.774999969E-3,-1.649999991E-2
3.609303786E1,-5.087499972E-3,4.537499975E-3,-4.949999973E-3
3.611303786E1,-4.812499974E-3,3.574999981E-3,-3.437499981E-3
3.613303786E1,-2.887499984E-3,2.337499987E-3,-5.774999969E-3
3.615303786E1,-4.124999978E-4,-2.337499987E-3,-2.172499895E-2
3.617303786E1,3.437499981E-3,-2.062499989E-3,-3.217500076E-2
3.619303786E1,1.072499994E-2,-5.499999970E-4,-4.784999788E-2
3.621303786E1,1.512499992E-2,8.249999955E-4,-4.702499881E-2
3.623303786E1,1.663750038E-2,9.624999948E-4,-4.716249928E-2
3.625303786E1,1.897500083E-2,1.787499990E-3,-4.509999976E-2
3.627303786E1,1.979999989E-2,3.024999984E-3,-2.901249938E-2
3.629303786E1,1.911249943E-2,3.437499981E-3,-2.653750032E-2
3.631303786E1,1.911249943E-2,4.262499977E-3,-2.584999986E-2
3.633303786E1,1.691249944E-2,7.149999961E-3,-2.062499896E-2
3.635303786E1,1.429999992E-2,8.249999955E-3,-1.429999992E-2
3.637303786E1,6.737499963E-3,9.349999949E-3,3.162499983E-3
3.639303786E1,-5.499999970E-4,6.599999964E-3,2.199999988E-2
3.641303786E1,-1.787499990E-3,6.187499966E-3,2.557500079E-2
3.643303786E1,-5.224999972E-3,5.087499972E-3,3.052499890E-2
3.645303786E1,-5.637499969E-3,5.499999970E-3,2.736249939E-2
3.647303786E1,-5.499999970E-3,6.599999964E-3,2.626249939E-2
3.649303786E1,-1.374999993E-4,6.599999964E-3,1.484999992E-2
3.651303786E1,8.937500417E-3,7.562499959E-3,-5.362499971E-3
3.653303786E1,7.974999957E-3,8.387500420E-3,-3.024999984E-3
3.655303786E1,3.574999981E-3,5.499999970E-3,2.062499989E-3
3.657303786E1,-4.949999973E-3,3.162499983E-3,1.347499993E-2
3.659303786E1,-8.387500420E-3,2.337499987E-3,1.539999992E-2
3.661303786E1,-1.168750040E-2,9.624999948E-4,1.402499992E-2
3.663303786E1,-9.487500414E-3,-2.749999985E-4,1.223750040E-2
3.665303786E1,-8.799999952E-3,-5.499999970E-4,1.182499994E-2
3.667303786E1,-3.437499981E-3,-5.499999970E-4,6.049999967E-3
3.669303786E1,-1.787499990E-3,-8.249999955E-4,1.072499994E-2
3.671303786E1,-1.512499992E-3,-1.374999993E-3,1.182499994E-2
3.673303786E1,-1.141249947E-2,-3.299999982E-3,2.681249939E-2
3.675303786E1,-1.526249945E-2,-3.162499983E-3,3.313750029E-2
3.677303786E1,-1.966249943E-2,-3.162499983E-3,3.863750026E-2
3.679303786E1,-7.974999957E-3,1.099999994E-3,1.127499994E-2
3.681303786E1,-2.199999988E-3,4.262499977E-3,9.624999948E-4
3.683303786E1,6.324999966E-3,7.974999957E-3,-1.264999993E-2
3.685303786E1,1.869999990E-2,1.031249948E-2,-3.272499889E-2
3.687303786E1,2.048750035E-2,1.003750041E-2,-3.437500075E-2
3.689303786E1,1.622499898E-2,1.044999994E-2,-2.626249939E-2
3.691303786E1,5.224999972E-3,1.072499994E-2,-9.762499481E-3
3.693303786E1,2.474999987E-3,1.113750041E-2,-7.837500423E-3
3.695303786E1,6.874999963E-4,9.624999948E-3,-1.388750039E-2
3.697303786E1,1.031249948E-2,8.387500420E-3,-2.846249938E-2
3.699303786E1,1.787500083E-2,7.424999960E-3,-4.097500071E-2
3.701303786E1,3.918749839E-2,4.949999973E-3,-7.782500237E-2
3.703303786E1,4.413750023E-2,1.099999994E-3,-8.304999769E-2
3.705303786E1,4.097500071E-2,6.874999963E-4,-7.424999774E-2
3.707303786E1,3.286249936E-2,-1.099999994E-3,-5.362499878E-2
3.709303786E1,2.021249942E-2,-2.474999987E-3,-3.547500074E-2
3.711303786E1,1.526249945E-2,-2.612499986E-3,-2.763750032E-2
3.713303786E1,5.087499972E-3,-3.299999982E-3,-1.031249948E-2
3.715303786E1,-4.262499977E-3,-5.774999969E-3,4.399999976E-3
3.717303786E1,-7.287499961E-3,-6.737499963E-3,1.072499994E-2
3.719303786E1,-1.526249945E-2,-6.324999966E-3,2.419999987E-2
3.721303786E1,-2.832499892E-2,-6.874999963E-3,4.798749834E-2
3.723303786E1,-3.107500076E-2,-5.362499971E-3,5.169999972E-2
3.725303786E1,-3.148749843E-2,-4.812499974E-3,4.592499882E-2
3.727303786E1,-3.258749843E-2,-7.149999961E-3,4.619999975E-2
3.729303786E1,-3.107500076E-2,-7.562499959E-3,4.592499882E-2
3.731303786E1,-2.791249938E-2,-5.774999969E-3,4.015000165E-2
3.733303786E1,-1.402499992E-2,-3.849999979E-3,1.897500083E-2
3.735303786E1,-9.212499484E-3,-3.024999984E-3,1.471249945E-2
3.737303786E1,-4.399999976E-3,-8.249999955E-4,1.636249945E-2
3.739303786E1,2.241249941E-2,2.749999985E-3,-2.227500081E-2
3.741303786E1,2.969999984E-2,4.949999973E-3,-3.781250119E-2
3.743303786E1,3.272499889E-2,7.012499962E-3,-4.949999973E-2
3.745303786E1,2.901249938E-2,9.762499481E-3,-4.647500068E-2
3.747303786E1,2.791249938E-2,1.113750041E-2,-4.523750022E-2
3.749303786E1,2.474999987E-2,1.416249946E-2,-4.028749838E-2
3.751303786E1,2.103750035E-2,1.416249946E-2,-3.561250120E-2
3.753303786E1,1.966249943E-2,1.374999993E-2,-3.451250121E-2
3.755303786E1,1.416249946E-2,1.264999993E-2,-3.121249937E-2
3.757303786E1,9.624999948E-4,1.141249947E-2,-3.038750030E-2
3.759303786E1,-2.474999987E-3,1.127499994E-2,-3.038750030E-2
3.761303786E1,-1.691249944E-2,1.196249947E-2,-1.209999993E-2
3.763303786E1,-3.643750027E-2,1.319999993E-2,2.516249940E-2
3.765303786E1,-3.904999793E-2,1.581249945E-2,3.052499890E-2
3.767303786E1,-4.138749838E-2,2.144999988E-2,3.877500072E-2
3.769303786E1,-4.248749837E-2,2.667500079E-2,4.551250115E-2
3.771303786E1,-4.331250116E-2,2.983750030E-2,4.895000160E-2
3.773303786E1,-4.496249929E-2,3.588749841E-2,5.816249922E-2
3.775303786E1,-4.867500067E-2,4.276249930E-2,7.232499868E-2
3.777303786E1,-4.895000160E-2,4.523750022E-2,7.411249727E-2
3.779303786E1,-4.661250114E-2,5.596249923E-2,7.301250100E-2
3.781303786E1,-4.509999976E-2,6.242499873E-2,7.273750007E-2
3.783303786E1,-4.496249929E-2,6.421250105E-2,7.328750193E-2
3.785303786E1,-4.001250118E-2,6.104999781E-2,6.902500242E-2
3.787303786E1,-3.588749841E-2,5.995000154E-2,6.338749826E-2
3.789303786E1,-2.832499892E-2,5.719999969E-2,5.279999971E-2
3.791303786E1,-2.241249941E-2,6.077500060E-2,4.358749837E-2
3.793303786E1,-2.433750033E-2,6.366249919E-2,4.564999789E-2
3.795303786E1,-3.024999984E-2,6.544999778E-2,5.527500063E-2
3.797303786E1,-3.382499889E-2,6.764999777E-2,5.046249926E-2
3.799303786E1,-3.368749842E-2,6.971249729E-2,4.496249929E-2
3.801303786E1,-2.997500077E-2,7.369999588E-2,3.244999796E-2
3.803303786E1,-1.484999992E-2,7.947500050E-2,4.124999978E-4
3.805303786E1,-1.044999994E-2,8.057499677E-2,-1.031249948E-2
3.807303786E1,-5.637499969E-3,8.552499861E-2,-2.447500080E-2
3.809303786E1,3.987499978E-3,9.377499670E-2,-3.478749841E-2
3.811303786E1,5.774999969E-3,9.611249715E-2,-3.409999982E-2
3.813303786E1,7.424999960E-3,9.542500228E-2,-3.162499890E-2
3.815303786E1,4.262499977E-3,8.896250278E-2,-2.144999988E-2
3.817303786E1,2.062499989E-3,8.621250093E-2,-1.649999991E-2
3.819303786E1,-2.749999985E-3,8.043749630E-2,-6.462499965E-3
3.821303786E1,-1.347499993E-2,7.493750006E-2,1.319999993E-2
3.823303786E1,-1.539999992E-2,7.328750193E-2,1.581249945E-2
3.825303786E1,-1.471249945E-2,7.012499869E-2,1.402499992E-2
3.827303786E1,-5.362499971E-3,6.476250291E-2,1.649999991E-3
3.829303786E1,-8.249999955E-4,6.187500060E-2,-5.087499972E-3
3.831303786E1,6.462499965E-3,5.719999969E-2,-1.553750038E-2
3.833303786E1,1.086249948E-2,5.486249924E-2,-2.117500082E-2
3.835303786E1,1.154999994E-2,5.444999784E-2,-2.337500080E-2
3.837303786E1,1.099999994E-2,5.582499877E-2,-2.639999986E-2
3.839303786E1,1.237499993E-2,6.049999967E-2,-3.011249937E-2
3.841303786E1,1.471249945E-2,6.146249920E-2,-3.313750029E-2
3.843303786E1,1.814999990E-2,6.448750198E-2,-3.959999979E-2
3.845303786E1,2.488750033E-2,6.806249917E-2,-5.211250111E-2
3.847303786E1,3.011249937E-2,6.998749822E-2,-5.967500061E-2
3.849303786E1,2.956249937E-2,7.163749635E-2,-5.582499877E-2
3.851303786E1,8.524999954E-3,7.108750194E-2,-1.979999989E-2
3.853303786E1,8.249999955E-4,7.232499868E-2,-7.424999960E-3
3.855303786E1,-1.003750041E-2,7.590000331E-2,1.017499994E-2
3.857303786E1,-2.846249938E-2,7.878749818E-2,3.052499890E-2
3.859303786E1,-3.162499890E-2,7.961250097E-2,3.162499890E-2
3.861303786E1,-3.533750027E-2,7.919999957E-2,2.777500078E-2
3.863303786E1,-3.726249933E-2,8.181250095E-2,2.309999987E-2
3.865303786E1,-3.657500073E-2,8.497499675E-2,1.938750036E-2
3.867303786E1,-3.217500076E-2,8.772499859E-2,9.212499484E-3
3.869303786E1,-3.836249933E-2,8.799999952E-2,1.553750038E-2
3.871303786E1,-4.537500069E-2,8.635000139E-2,2.474999987E-2
3.873303786E1,-5.761250108E-2,8.084999770E-2,3.863750026E-2
3.875303786E1,-5.115000159E-2,8.057499677E-2,2.461249940E-2
3.877303786E1,-4.564999789E-2,8.043749630E-2,1.691249944E-2
3.879303786E1,-3.437500075E-2,7.672499865E-2,-3.024999984E-3
3.881303786E1,-2.021249942E-2,7.122500241E-2,-2.626249939E-2
3.883303786E1,-1.594999991E-2,6.929999590E-2,-3.519999981E-2
3.885303786E1,-1.306249946E-2,6.531249732E-2,-4.441250116E-2
3.887303786E1,-1.649999991E-2,5.568749830E-2,-4.262499884E-2
3.889303786E1,-1.663750038E-2,5.115000159E-2,-4.097500071E-2
3.891303786E1,-2.763750032E-2,3.671250120E-2,-1.966249943E-2
3.893303786E1,-2.956249937E-2,3.258749843E-2,-1.759999990E-2
3.895303786E1,-3.135000169E-2,2.749999985E-2,-1.264999993E-2
3.897303786E1,-3.038750030E-2,2.516249940E-2,-3.464999795E-2
3.899303786E1,-2.887500077E-2,2.406249940E-2,-4.207500070E-2
3.901303786E1,-2.571249940E-2,2.117500082E-2,-5.197500065E-2
3.903303786E1,-1.828750037E-2,2.199999988E-2,-6.943749636E-2
3.905303786E1,-1.594999991E-2,2.254999988E-2,-7.383749634E-2
3.907303786E1,-1.099999994E-2,2.309999987E-2,-8.249999583E-2
3.909303786E1,-9.487500414E-3,2.983750030E-2,-9.790000319E-2
3.911303786E1,-6.324999966E-3,3.409999982E-2,-1.099999994E-1
3.913303786E1,9.762499481E-3,4.166249931E-2,-1.372250021E-1
3.915303786E1,1.374999993E-4,1.116499975E-1,-1.038125008E-1
3.917303786E1,-8.112499490E-3,1.351625025E-1,-8.415000141E-2
3.919303786E1,-1.773750037E-2,1.636250019E-1,-6.352499872E-2
3.921303786E1,-1.869999990E-2,1.816374958E-1,-5.018749833E-2
3.923303786E1,-1.691249944E-2,1.870000064E-1,-4.963750020E-2
3.925303786E1,-1.484999992E-2,1.992374957E-1,-4.867500067E-2
3.927303786E1,-1.154999994E-2,2.055625021E-1,-5.004999787E-2
3.929303786E1,-1.058750041E-2,2.059749961E-1,-4.991250113E-2
3.931303786E1,-1.471249945E-2,2.080374956E-1,-3.767500073E-2
3.933303786E1,-4.358749837E-2,1.922249943E-1,1.319999993E-2
3.935303786E1,-5.335000157E-2,1.821874976E-1,3.107500076E-2
3.937303786E1,-6.049999967E-2,1.559250057E-1,4.675000161E-2
3.939303786E1,-4.344999790E-2,1.156374961E-1,2.158750035E-2
3.941303786E1,-3.382499889E-2,1.064250022E-1,9.762499481E-3
3.943303786E1,-1.141249947E-2,9.088750184E-2,-1.072499994E-2
3.945303786E1,7.424999960E-3,7.026249915E-2,-2.612499893E-2
3.947303786E1,9.624999948E-3,6.297499686E-2,-2.612499893E-2
3.949303786E1,1.113750041E-2,5.101250112E-2,-2.529999986E-2
3.951303786E1,8.112499490E-3,3.464999795E-2,-2.447500080E-2
3.953303786E1,6.049999967E-3,3.231250122E-2,-2.227500081E-2
3.955303786E1,2.749999985E-3,2.914999984E-2,-2.254999988E-2
3.957303786E1,2.076249942E-2,2.584999986E-2,-3.904999793E-2
3.959303786E1,2.873750031E-2,2.791249938E-2,-4.812499881E-2
3.961303786E1,4.015000165E-2,2.818750031E-2,-5.967500061E-2
3.963303786E1,4.069999978E-2,1.938750036E-2,-4.289999977E-2
3.965303786E1,3.492499888E-2,1.677500084E-2,-3.396249935E-2
3.967303786E1,2.103750035E-2,1.099999994E-2,-1.979999989E-2
3.969303786E1,9.762499481E-3,4.399999976E-3,-1.127499994E-2
3.971303786E1,2.612499986E-3,4.812499974E-3,-4.124999978E-3
