Time (s),ax,ay,az,gx,gy,gz
5.013037864,5.479950428,0.7950000167,-8.237999916,0.2029500008,-0.1358499974,-0.1559250057
5.033037864,5.326050282,0.6990000606,-8.391000748,0.1845249981,-0.2028124928,-0.1699499935
5.053037864,5.134950161,0.6610500216,-8.334000587,0.1771000028,-0.2220624983,-0.1691250056
5.073037864,5.116050243,0.7750500441,-8.237999916,0.1626625061,-0.2546499968,-0.1687124968
5.093037864,5.038950443,0.8520000577,-8.257050514,0.1270499974,-0.2371875048,-0.1535875052
5.113037864,5.173050404,0.7750500441,-8.295000076,0.1148125008,-0.2256374955,-0.1592250019
5.133037864,5.30700016,0.6610500216,-8.353050232,0.09707500041,-0.1960749924,-0.167475
5.153037864,5.30700016,0.6610500216,-8.179950714,0.07218749821,-0.1544124931,-0.1280124933
5.173037864,5.344950199,0.6799500585,-8.161050797,0.06036249921,-0.142037496,-0.1149500012
5.193037864,5.499000072,0.6220500469,-8.122950554,0.03423750028,-0.1185249984,-0.1014750004
5.213037864,5.518050194,0.6220500469,-8.046000481,-0.001512499992,-0.09281250089,-0.05266249925
5.233037864,5.460000038,0.7369500399,-8.104050636,-0.009899999946,-0.08703749627,-0.03203750029
5.253037864,5.440950394,0.8140500188,-8.122950554,-0.01416249946,-0.07603749633,-0.01333750039
5.273037864,5.499000072,0.7950000167,-8.179950714,-0.01388750039,-0.05596249923,-0.005912499968
5.293037864,5.344950199,0.6610500216,-8.200050354,-0.01471249945,-0.04688749835,-0.002199999988
5.313037864,5.30700016,0.6990000606,-8.237999916,-0.01636249945,-0.03272499889,0.002199999988
5.333037864,5.211000443,0.8329500556,-8.257050514,-0.02419999987,0.009762499481,0.02103750035
5.353037864,5.173050404,0.889950037,-8.179950714,-0.02557500079,0.02268750034,0.02612499893
5.373037864,5.173050404,0.7950000167,-8.200050354,-0.02268750034,0.02804999985,0.02241249941
5.393037864,5.173050404,0.756000042,-8.179950714,-0.01443750039,0.01979999989,-0.004537499975
5.413037864,5.269050121,0.7180500627,-8.237999916,-0.01292499993,0.01732499897,-0.01251249947
5.433037864,5.344950199,0.6990000606,-8.200050354,-0.001374999993,-0.004124999978,-0.0431750007
5.453037864,5.191950321,0.6990000606,-8.257050514,0.005362499971,-0.01196249947,-0.06352499872
5.473037864,5.211000443,0.7750500441,-8.218950272,0.008799999952,-0.02282499894,-0.07081250101
5.493037864,5.326050282,0.8140500188,-8.104050636,0.01457499992,-0.04331250116,-0.07466249913
5.513037864,5.422050476,0.7750500441,-8.065950394,0.01498750038,-0.04606249928,-0.07232499868
5.533037864,5.440950394,0.7369500399,-8.065950394,0.01003750041,-0.04138749838,-0.05596249923
5.553037864,5.403000355,0.6799500585,-8.257050514,-0.003574999981,-0.03341250122,-0.02694999985
5.573037864,5.556000233,0.756000042,-7.836000443,-0.01732499897,-0.02323750034,0.001099999994
5.593037864,5.536950111,0.6610500216,-7.836000443,-0.03135000169,-0.00178749999,0.02873750031
5.613037864,5.575050354,0.5460000038,-8.046000481,-0.04702499881,0.05843750015,0.09473749995
5.633037864,5.614050388,0.4500000179,-8.257050514,-0.0496375002,0.07672499865,0.1153625026
5.653037864,5.518050194,0.5839500427,-8.161050797,-0.04619999975,0.09171249717,0.1465750039
5.673037864,5.556000233,0.8140500188,-7.93200016,-0.03478749841,0.0984499976,0.1363999993
5.693037864,5.556000233,0.8520000577,-8.104050636,-0.03341250122,0.09872499853,0.1230624989
5.713037864,5.536950111,0.7950000167,-8.142000198,-0.03409999982,0.098862499,0.1028499976
5.733037864,5.556000233,0.8329500556,-8.122950554,-0.04331250116,0.1093124971,0.098862499
5.753037864,5.518050194,0.8140500188,-8.046000481,-0.04427500069,0.1099999994,0.09253749996
5.773037864,5.499000072,0.6799500585,-8.065950394,-0.03849999979,0.1020250022,0.0679249987
5.793037864,5.440950394,0.6799500585,-8.161050797,-0.02227500081,0.08318749815,0.03066249937
5.813037864,5.518050194,0.6799500585,-8.257050514,-0.01581249945,0.07796250284,0.02062499896
5.833037864,5.422050476,0.6610500216,-8.161050797,0.004674999975,0.05926249921,-0.003574999981
5.853037864,5.383950233,0.8329500556,-8.085000038,0.02791249938,0.02268750034,-0.04633750021
5.873037864,5.383950233,0.8329500556,-8.065950394,0.02612499893,0.01732499897,-0.05183750018
5.893037864,5.440950394,0.8140500188,-8.046000481,0.01801249944,0.002887499984,-0.07039999962
5.913037864,5.499000072,0.7369500399,-8.085000038,0.007149999961,-0.01292499993,-0.09226249903
5.933037864,5.536950111,0.6610500216,-8.142000198,0.00838750042,-0.01512499992,-0.08566249907
5.953037864,5.593950272,0.7180500627,-8.008049965,0.01484999992,-0.01306249946,-0.07287500054
5.973037864,5.671050072,0.6990000606,-7.969950199,0.02172499895,-0.006599999964,-0.04798749834
5.993037864,5.689950466,0.6030000448,-8.026950836,0.03148749843,-0.004812499974,-0.0362999998
6.013037864,5.671050072,0.5839500427,-8.046000481,0.05403750017,0.002337499987,-0.02901249938
6.033037864,5.671050072,0.5839500427,-7.98900032,0.05761250108,0.03726249933,-0.03121249937
6.053037864,5.671050072,0.5839500427,-7.98900032,0.05761250108,0.03726249933,-0.03121249937
6.073037864,5.689950466,0.5839500427,-8.085000038,0.03712499887,0.07315000147,-0.006737499963
6.093037864,5.632950306,0.5839500427,-8.161050797,0.0309375003,0.07864999771,0.00549999997
6.113037864,5.499000072,0.6409500241,-8.237999916,0.02034999989,0.07782500237,0.03684999794
6.133037864,5.344950199,0.6409500241,-8.179950714,0.01622499898,0.05733750015,0.06503749639
6.153037864,5.287950039,0.6409500241,-8.122950554,0.01801249944,0.04675000161,0.06489999592
6.173037864,5.30700016,0.6799500585,-7.951050282,0.02282499894,0.02832499892,0.05788749829
6.193037864,5.479950428,0.8140500188,-7.816950321,0.01141249947,0.009487500414,0.0434499979
6.213037864,5.671050072,0.8710500598,-7.951050282,0.008662499487,0.00192499999,0.03877500072
6.233037864,5.805000305,0.9480000734,-8.179950714,-0.002474999987,-0.0009624999948,0.0362999998
6.253037864,5.9010005,0.8140500188,-7.969950199,-0.03176249936,0.008937500417,-0.003574999981
6.273037864,5.920050144,0.6610500216,-7.836000443,-0.03849999979,0.009349999949,-0.009212499484
6.293037864,5.842950344,0.6799500585,-7.912050247,-0.0549999997,0.01979999989,0.01209999993
6.313037864,5.767050266,0.8140500188,-7.873950481,-0.07287500054,0.03726249933,0.03024999984
6.333037864,5.805000305,0.8140500188,-7.98900032,-0.073012501,0.04042499885,0.0244750008
6.353037864,5.499000072,1.063050032,-8.200050354,-0.06627500057,0.0496375002,-0.003437499981
6.373037864,5.116050243,0.889950037,-8.122950554,-0.05128749833,0.04578749835,-0.07548750192
6.393037864,5.097000122,0.6990000606,-7.893000603,-0.0489500016,0.04455000162,-0.07919999957
6.413037864,5.518050194,0.6610500216,-8.008049965,-0.0438624993,0.03547500074,-0.06819999963
6.433037864,5.689950466,0.6799500585,-8.085000038,-0.03712499887,0.02323750034,-0.03781250119
6.453037864,5.748000145,0.7950000167,-8.065950394,-0.0380874984,0.0233750008,-0.02708750032
6.473037864,5.842950344,0.6990000606,-7.98900032,-0.0427624993,0.01484999992,0.00838750042
6.493037864,5.767050266,0.6409500241,-7.93200016,-0.03616249934,0.004537499975,0.07493750006
6.513037864,5.652000427,0.6030000448,-7.93200016,-0.03643750027,0.002199999988,0.0873124972
6.533037864,5.614050388,0.6990000606,-7.93200016,-0.03327500075,-0.003437499981,0.08635000139
6.553037864,5.614050388,0.756000042,-7.969950199,-0.02309999987,-0.01911249943,0.06902500242
6.573037864,5.689950466,0.8520000577,-8.065950394,-0.006599999964,-0.03602499887,0.04179999977
6.593037864,5.632950306,0.8329500556,-8.065950394,0.01017499994,-0.03863750026,0.01319999993
6.613037864,5.536950111,0.8520000577,-7.912050247,0.01429999992,-0.01993750036,0.01264999993
6.633037864,5.575050354,0.7750500441,-7.951050282,0.01773750037,-0.009349999949,0.01306249946
6.653037864,5.593950272,0.7180500627,-7.98900032,0.01237499993,0.02199999988,0.02048750035
6.673037864,5.593950272,0.8329500556,-7.951050282,0.0116875004,0.05046249926,0.01608750038
6.693037864,5.689950466,0.8520000577,-7.951050282,0.0186999999,0.04578749835,-0.002337499987
6.713037864,5.709000111,0.8710500598,-7.951050282,0.0244750008,0.0420750007,-0.02873750031
6.733037864,5.767050266,0.7950000167,-8.085000038,0.02997500077,0.03753750026,-0.06572499871
6.753037864,5.689950466,0.8140500188,-7.98900032,0.02818750031,0.03024999984,-0.08758749813
6.773037864,5.652000427,0.9859500527,-7.912050247,0.01897500083,0.02502499893,-0.09913749993
6.793037864,5.689950466,1.158000112,-7.893000603,0.002337499987,0.02351249941,-0.120312497
6.813037864,5.652000427,0.8329500556,-8.104050636,-0.008249999955,0.02241249941,-0.1282874942
6.833037864,5.805000305,0.487950027,-8.237999916,-0.007974999957,0.02227500081,-0.08566249907
6.853037864,5.938950062,0.9090000391,-8.122950554,-0.01581249945,0.02722499892,-0.03877500072
6.873037864,5.440950394,1.905000091,-8.161050797,-0.00811249949,0.02818750031,-0.03657500073
6.893037864,5.211000443,0.9090000391,-7.375950336,0.00178749999,0.01402499992,-0.0554125011
6.913037864,5.748000145,0.2580000162,-8.026950836,-0.0127875004,0.01264999993,-0.0567874983
6.933037864,5.920050144,0.1440000087,-7.98900032,-0.0192499999,0.008799999952,-0.03368749842
6.953037864,5.958000183,0.5460000038,-7.663050175,-0.01402499992,0.009349999949,0.001237499993
6.973037864,6.016050339,0.8520000577,-7.64400053,-0.02172499895,0.02502499893,0.02804999985
6.993037864,5.824050426,1.101000071,-7.893000603,-0.01691249944,0.04138749838,0.04537500069
7.013037864,5.997000217,0.6220500469,-7.969950199,-0.007837500423,0.06613750011,0.03575000167
7.033037864,5.689950466,0.2970000207,-8.122950554,0.01567500085,0.08126249909,0.06063750014
7.053037864,5.30700016,1.04400003,-7.836000443,0.0489500016,0.06819999963,0.08607500046
7.073037864,5.479950428,1.27305007,-8.008049965,0.04578749835,0.04523750022,0.01773750037
7.093037864,5.767050266,1.081950068,-8.104050636,0.04179999977,0.0380874984,-0.003987499978
7.113037864,5.709000111,0.7180500627,-8.008049965,0.04015000165,0.02186249942,-0.02021249942
7.133037864,5.652000427,0.6990000606,-7.893000603,0.03299999982,0.0251624994,-0.002612499986
7.153037864,5.671050072,0.756000042,-7.98900032,0.03011249937,0.02199999988,0.0008249999955
7.173037864,5.767050266,0.7750500441,-8.008049965,0.02089999989,0.0186999999,0.001374999993
7.193037864,5.689950466,0.8140500188,-7.98900032,0.01594999991,-0.005087499972,-0.01842499897
7.213037864,5.632950306,0.6990000606,-8.104050636,0.009487500414,-0.01773750037,-0.02804999985
7.233037864,5.518050194,0.8329500556,-7.98900032,-0.005224999972,-0.04166249931,-0.02873750031
7.253037864,5.518050194,0.7750500441,-7.93200016,-0.002337499987,-0.1027124971,-0.0362999998
7.273037864,5.614050388,0.7180500627,-7.951050282,-0.008249999955,-0.1157749966,-0.04235000163
7.293037864,5.709000111,0.7750500441,-7.951050282,-0.03066249937,-0.1016125008,-0.03575000167
7.313037864,5.767050266,0.7750500441,-8.046000481,-0.04936249927,-0.06682500243,0.02887500077
7.333037864,5.689950466,0.7750500441,-7.951050282,-0.05059999973,-0.05747500062,0.04001250118
7.353037864,5.575050354,0.7750500441,-7.969950199,-0.04881250113,-0.03464999795,0.06847500056
7.373037864,5.652000427,0.7750500441,-8.026950836,-0.04221250117,-0.02007500082,0.1040875018
7.393037864,5.632950306,0.7750500441,-8.008049965,-0.04015000165,-0.01718750037,0.09638749808
7.413037864,5.593950272,0.756000042,-7.969950199,-0.03079999983,-0.01429999992,0.07617499679
7.433037864,5.671050072,0.7180500627,-8.104050636,-0.01471249945,-0.009899999946,0.04812499881
7.453037864,5.671050072,0.7750500441,-8.085000038,-0.008249999955,-0.008799999952,0.0367125012
7.473037864,5.556000233,0.8140500188,-7.969950199,0.01526249945,-0.005362499971,-0.0006874999963
7.493037864,5.614050388,0.8520000577,-7.951050282,0.03684999794,0.0009624999948,-0.0373999998
7.513037864,5.709000111,0.9090000391,-7.951050282,0.03547500074,0.00178749999,-0.03767500073
7.533037864,5.748000145,0.889950037,-7.969950199,0.02584999986,0.005912499968,-0.03121249937
7.553037864,5.785950184,0.889950037,-8.008049965,0.01031249948,0.006187499966,-0.04936249927
7.573037864,5.767050266,0.9090000391,-7.855050564,0.006462499965,0.006187499966,-0.05527500063
7.593037864,5.689950466,0.756000042,-7.98900032,0.0004124999978,0.007837500423,-0.04977500066
7.613037864,5.614050388,0.6990000606,-8.161050797,0.01182499994,0.01237499993,-0.05087500066
7.633037864,5.536950111,0.7950000167,-8.026950836,0.02736249939,0.01196249947,-0.06256250292
7.653037864,5.536950111,0.8520000577,-7.951050282,0.0316249989,0.006462499965,-0.06366249919
7.673037864,5.614050388,0.8140500188,-7.98900032,0.03024999984,0.004124999978,-0.05884999782
7.693037864,5.785950184,0.8329500556,-7.951050282,0.0298375003,0.0002749999985,-0.05706249923
7.713037864,5.689950466,0.7950000167,-8.046000481,0.02653750032,0.006187499966,-0.05335000157
7.733037864,5.614050388,0.756000042,-7.93200016,0.02309999987,0.009624999948,-0.04881250113
7.753037864,5.824050426,0.889950037,-7.969950199,0.02007500082,0.01443750039,-0.04303750023
7.773037864,5.824050426,0.9670500755,-7.951050282,0.0251624994,0.02557500079,-0.04936249927
7.793037864,5.671050072,0.8329500556,-8.046000481,0.03451250121,0.02694999985,-0.06489999592
7.813037864,5.593950272,0.8140500188,-7.912050247,0.03643750027,0.01966249943,-0.06435000151
7.833037864,5.652000427,0.7750500441,-8.008049965,0.03382499889,0.01388750039,-0.05555000156
7.853037864,5.652000427,0.8140500188,-8.026950836,0.03781250119,0.001237499993,-0.06104999781
7.873037864,5.614050388,0.7950000167,-7.93200016,0.02969999984,-0.00178749999,-0.05156249925
7.893037864,5.614050388,0.8140500188,-7.951050282,0.01581249945,0.002062499989,-0.0362999998
7.913037864,5.728050232,0.8710500598,-7.98900032,0.007974999957,0.003162499983,-0.03492499888
7.933037864,5.748000145,0.8520000577,-8.008049965,0.002062499989,0.006599999964,-0.03244999796
7.953037864,5.748000145,0.9090000391,-7.93200016,-0.004812499974,0.006874999963,-0.02392499894
7.973037864,5.748000145,0.8520000577,-7.951050282,-0.02199999988,0.01127499994,-0.01141249947
7.993037864,5.671050072,0.8140500188,-8.008049965,-0.03492499888,0.01443750039,0.005637499969
8.013037864,5.575050354,0.7750500441,-7.912050247,-0.03575000167,0.006187499966,0.02062499896
8.033037864,5.518050194,0.7950000167,-8.046000481,-0.03822499886,0.00178749999,0.03368749842
8.053037864,5.499000072,0.8329500556,-7.98900032,-0.0369874984,-0.01154999994,0.04441250116
8.073037864,5.556000233,0.8140500188,-8.065950394,-0.03258749843,-0.02887500077,0.05004999787
8.093037864,5.593950272,0.8140500188,-8.065950394,-0.03464999795,-0.03176249936,0.05486249924
8.113037864,5.593950272,0.8140500188,-7.969950199,-0.03258749843,-0.03121249937,0.05211250111
8.133037864,5.652000427,0.8329500556,-7.951050282,-0.0303875003,-0.02736249939,0.04826249927
8.153037864,5.728050232,0.7369500399,-7.951050282,-0.03244999796,-0.02543750033,0.05224999785
8.173037864,5.709000111,0.756000042,-7.969950199,-0.0362999998,-0.02172499895,0.0679249987
8.193037864,5.709000111,0.8520000577,-7.836000443,-0.02901249938,-0.01608750038,0.07287500054
8.213037864,5.805000305,0.9480000734,-7.893000603,-0.0240624994,-0.0127875004,0.06476250291
8.233037864,5.824050426,0.8329500556,-7.98900032,-0.01636249945,-0.002749999985,0.04303750023
8.253037864,5.824050426,0.756000042,-8.085000038,-0.003987499978,0.007149999961,0.01966249943
8.273037864,5.728050232,0.8329500556,-7.969950199,0.002612499986,0.01512499992,0.009899999946
8.293037864,5.536950111,1.024049997,-7.855050564,0.01099999994,0.03355000168,-0.004949999973
8.313037864,5.536950111,1.063050032,-7.873950481,0.01099999994,0.03341250122,-0.03492499888
8.333037864,5.614050388,0.9289500713,-8.008049965,0.008799999952,0.03244999796,-0.04881250113
8.353037864,5.748000145,0.8710500598,-8.085000038,0.00178749999,0.03299999982,-0.05953750014
8.373037864,5.709000111,0.8710500598,-8.085000038,-0.01677500084,0.02529999986,-0.02323750034
8.393037864,5.689950466,0.8710500598,-7.93200016,-0.0181499999,0.02419999987,-0.0181499999
8.413037864,5.536950111,0.9090000391,-7.893000603,-0.01581249945,0.01952499896,-0.02378750034
8.433037864,5.556000233,0.7950000167,-7.912050247,-0.008799999952,0.007562499959,-0.02859999985
8.453037864,5.671050072,0.7750500441,-7.98900032,-0.005362499971,0.002199999988,-0.02749999985
8.473037864,5.728050232,0.8710500598,-8.008049965,0.007287499961,-0.01553750038,-0.03396249935
8.493037864,5.767050266,0.9670500755,-7.893000603,0.007699999958,-0.02749999985,-0.0298375003
8.513037864,5.785950184,0.9090000391,-7.912050247,0.002199999988,-0.02763750032,-0.02309999987
8.533037864,5.785950184,0.8140500188,-7.873950481,-0.007287499961,-0.01911249943,-0.01512499992
8.553037864,5.881950378,0.7369500399,-7.93200016,-0.03478749841,-0.005774999969,0.0427624993
8.573037864,5.9010005,0.7950000167,-7.912050247,-0.04647500068,0.00549999997,0.06861250103
8.593037864,5.824050426,0.8710500598,-7.951050282,-0.06544999778,0.03272499889,0.1023000032
8.613037864,5.767050266,0.9090000391,-7.836000443,-0.06407500058,0.04757500067,0.1157749966
8.633037864,5.709000111,0.9859500527,-7.893000603,-0.06063750014,0.05004999787,0.1072499976
8.653037864,5.881950378,1.004999995,-7.873950481,-0.05211250111,0.05211250111,0.08552499861
8.673037864,5.9010005,0.9670500755,-7.912050247,-0.04702499881,0.05623750016,0.073012501
8.693037864,5.881950378,0.889950037,-7.969950199,-0.0492249988,0.06407500058,0.05651250109
8.713037864,5.863050461,0.8520000577,-7.912050247,-0.0556874983,0.07273750007,0.0431750007
8.733037864,5.881950378,0.9670500755,-8.008049965,-0.05775000155,0.07796250284,0.04592499882
8.753037864,5.785950184,0.9090000391,-7.797000408,-0.04757500067,0.07535000145,0.04069999978
8.773037864,5.709000111,0.889950037,-7.740000248,-0.03066249937,0.06847500056,0.02186249942
8.793037864,5.842950344,0.8520000577,-7.873950481,-0.01649999991,0.06201250106,0.003299999982
8.813037864,5.863050461,0.7369500399,-8.046000481,0.02048750035,0.05376249924,-0.04826249927
8.833037864,5.881950378,0.7750500441,-7.893000603,0.06201250106,0.04839999974,-0.1031249985
8.853037864,5.709000111,0.8140500188,-7.98900032,0.07961250097,0.03987500072,-0.1236125007
8.873037864,5.499000072,0.7950000167,-8.046000481,0.08621250093,0.02144999988,-0.1237500012
8.893037864,5.422050476,0.8140500188,-7.912050247,0.08470000327,-0.0004124999978,-0.115912497
8.913037864,5.460000038,0.889950037,-8.026950836,0.0868999958,-0.02928750031,-0.103262499
8.933037864,5.593950272,0.9090000391,-8.026950836,0.09363749623,-0.05775000155,-0.101062499
8.953037864,5.728050232,0.8710500598,-7.836000443,0.09171249717,-0.0669625029,-0.09803749621
8.973037864,5.805000305,0.7950000167,-7.663050175,0.08359999955,-0.0683375001,-0.08662500232
8.993037864,5.842950344,0.756000042,-7.64400053,0.07246249914,-0.05788749829,-0.06270000339
9.013037864,5.748000145,0.8140500188,-7.93200016,0.0434499979,-0.03464999795,-0.01086249948
9.033037864,5.689950466,0.8329500556,-8.237999916,0.0367125012,-0.03231250122,0.001237499993
9.053037864,5.652000427,0.9090000391,-8.065950394,0.02474999987,-0.03176249936,0.01196249947
9.073037864,5.536950111,0.889950037,-7.777950287,0.008937500417,-0.03822499886,0.01333750039
9.093037864,5.365050316,0.889950037,-8.026950836,0.008524999954,-0.04716249928,0.008524999954
9.113037864,5.097000122,0.8520000577,-8.026950836,0.01182499994,-0.06888750196,-0.006187499966
9.133037864,4.503000259,0.487950027,-8.046000481,0.01567500085,-0.09432499856,-0.02364999987
9.153037864,3.985950232,0.1440000087,-8.122950554,0.02557500079,-0.1473999918,-0.03451250121
9.173037864,3.775050163,-0.009000000544,-8.218950272,0.03877500072,-0.214774996,-0.04179999977
9.193037864,3.793950081,0.08595000207,-8.640000343,0.1137124971,-0.352137506,0.05417500064
9.213037864,4.789950371,0.7750500441,-8.98500061,0.1410750002,-0.3940750062,0.07851249725
9.233037864,6.034950256,1.387950063,-8.98500061,0.1615625024,-0.4320249856,0.04166249931
9.253037864,6.073050499,0.7369500399,-8.56305027,0.1453374922,-0.4019125104,-0.02598750032
9.273037864,6.456000328,0.1050000042,-8.161050797,0.1339250058,-0.3755125105,-0.02529999986
9.293037864,6.628050327,0.1630500108,-7.969950199,0.09762500226,-0.2979624867,0.009349999949
9.313037864,6.169050217,0.6030000448,-7.969950199,0.03781250119,-0.1277374923,0.1446499974
9.333037864,5.403000355,0.7369500399,-7.93200016,0.03258749843,-0.08799999952,0.1842499971
9.353037864,5.173050404,0.5650500059,-8.046000481,0.03478749841,-0.05362499878,0.2224749923
9.373037864,5.154000282,0.3349500299,-8.085000038,0.03107500076,-0.009349999949,0.2270125002
9.393037864,5.154000282,0.1819500029,-8.218950272,0.0251624994,0.01649999991,0.2211000025
9.413037864,5.30700016,0.2970000207,-8.122950554,0.0004124999978,0.08607500046,0.2139499933
9.433037864,5.326050282,0.3540000021,-8.275950432,-0.05376249924,0.2182125002,0.2283875048
9.453037864,5.173050404,0.2970000207,-8.237999916,-0.06489999592,0.2436500043,0.2290749997
9.473037864,5.097000122,0.3919500113,-8.257050514,-0.06544999778,0.2255000025,0.2047374994
9.493037864,5.038950443,0.3349500299,-8.353050232,-0.04289999977,0.172012493,0.1585374922
9.513037864,5.020050049,0.2970000207,-8.37195015,-0.02997500077,0.1607374996,0.1627999991
9.533037864,4.981950283,0.3349500299,-8.353050232,0.02062499896,0.03382499889,0.1201749966
9.553037864,5.020050049,0.3919500113,-8.353050232,0.0910250023,-0.180537492,0.007149999961
9.573037864,5.038950443,0.2779500186,-8.37195015,0.09941250086,-0.2056999952,-0.005087499972
9.593037864,5.058000088,0.2779500186,-8.353050232,0.1049124971,-0.2143625021,0.002337499987
9.613037864,5.020050049,0.2779500186,-8.334000587,0.09817499667,-0.1958000064,0.01979999989
9.633037864,5.058000088,0.2779500186,-8.295000076,0.08676250279,-0.184937492,0.02598750032
9.653037864,5.020050049,0.2779500186,-8.391000748,0.06462500244,-0.1637624949,0.02777500078
9.673037864,5.020050049,0.201000005,-8.218950272,0.04826249927,-0.1533125043,0.02007500082
9.693037864,5.191950321,0.1440000087,-8.200050354,0.04468749836,-0.1489125043,0.02076249942
9.713037864,5.518050194,0.2389500141,-8.218950272,0.0369874984,-0.1199000031,0.03533750027
9.733037864,5.460000038,0.3919500113,-8.257050514,0.02241249941,-0.08470000327,0.0669625029
9.753037864,5.287950039,0.3349500299,-8.275950432,0.0008249999955,-0.05967500061,0.09088750184
9.773037864,5.097000122,0.2389500141,-8.37195015,-0.01677500084,-0.01099999994,0.1049124971
9.793037864,4.867050171,0.2779500186,-8.467950821,-0.01594999991,0.007149999961,0.09707500041
9.813037864,4.656000137,0.3160500228,-8.524950027,-0.008799999952,-0.0001374999993,0.08249999583
9.833037864,4.444950104,0.3160500228,-8.583000183,-0.003574999981,-0.008249999955,0.06228749827
9.853037864,4.369050026,0.3160500228,-8.583000183,-0.0008249999955,-0.04056249931,0.04331250116
9.873037864,4.254000187,0.2779500186,-8.583000183,0.008524999954,-0.1179749966,0.01828750037
9.893037864,4.350000381,0.4120500088,-8.602050781,0.02227500081,-0.1722874939,-0.01127499994
9.913037864,4.483950138,0.46905002,-8.602050781,0.03959999979,-0.1959374994,-0.04757500067
9.933037864,4.618050098,0.46905002,-8.524950027,0.06407500058,-0.2054249942,-0.1097249985
9.953037864,4.693950176,0.4309500158,-8.56305027,0.0859375,-0.2169750035,-0.1940124929
9.973037864,4.789950371,0.4120500088,-8.50605011,0.09597499669,-0.2359499931,-0.2558875084
9.993037864,4.771050453,0.4120500088,-8.467950821,0.1006499976,-0.2454375029,-0.2780250013
10.01303786,4.809000015,0.3349500299,-8.487000465,0.09927500039,-0.2389750034,-0.2761000097
10.03303786,4.809000015,0.3540000021,-8.410050392,0.08717499673,-0.2167000026,-0.2569875121
10.05303786,4.867050171,0.3730500042,-8.410050392,0.07699999958,-0.1792999953,-0.2399374992
10.07303786,4.924050331,0.4120500088,-8.44904995,0.073012501,-0.1343374997,-0.2268749923
10.09303786,4.924050331,0.4120500088,-8.410050392,0.07012499869,-0.09597499669,-0.2142249942
10.11303786,4.90500021,0.4309500158,-8.391000748,0.05087500066,-0.01732499897,-0.1739374995
10.13303786,4.90500021,0.46905002,-8.44904995,0.02901249938,0.05733750015,-0.1302125007
10.15303786,4.885950089,0.5260500312,-8.467950821,0.01237499993,0.09088750184,-0.09583749622
10.17303786,4.90500021,0.5070000291,-8.391000748,-0.004674999975,0.1055999994,-0.06435000151
10.19303786,4.90500021,0.5460000038,-8.391000748,-0.0186999999,0.1094499975,-0.04056249931
10.21303786,4.90500021,0.5839500427,-8.410050392,-0.0303875003,0.1020250022,-0.02158750035
10.23303786,4.90500021,0.6030000448,-8.44904995,-0.04248749837,0.09322500229,-0.01058750041
10.25303786,4.90500021,0.5070000291,-8.353050232,-0.06256250292,0.08538749814,-0.0002749999985
10.27303786,4.963050365,0.5070000291,-8.42895031,-0.06503749639,0.08373750001,-0.0
10.29303786,4.963050365,0.5070000291,-8.391000748,-0.06943749636,0.0798875019,0.003437499981
10.31303786,4.981950283,0.46905002,-8.391000748,-0.07315000147,0.06861250103,0.006599999964
10.33303786,4.885950089,0.487950027,-8.42895031,-0.07191249728,0.06201250106,0.006737499963
10.35303786,4.828050137,0.5070000291,-8.353050232,-0.06435000151,0.04908749834,0.005087499972
10.37303786,4.789950371,0.5070000291,-8.467950821,-0.0362999998,0.03464999795,-0.0246124994
10.39303786,4.828050137,0.5460000038,-8.487000465,-0.02749999985,0.02722499892,-0.0356125012
10.41303786,4.828050137,0.5260500312,-8.42895031,-0.01746249944,0.01251249947,-0.04262499884
10.43303786,4.809000015,0.487950027,-8.467950821,-0.0192499999,-0.005224999972,-0.02254999988
10.45303786,4.771050453,0.5070000291,-8.42895031,-0.02172499895,-0.007699999958,-0.01182499994
10.47303786,4.789950371,0.487950027,-8.37195015,-0.01801249944,-0.01498750038,-0.008524999954
10.49303786,4.809000015,0.5260500312,-8.44904995,-0.00178749999,-0.02323750034,-0.003024999984
10.51303786,4.809000015,0.5650500059,-8.42895031,0.00371249998,-0.02529999986,-0.004124999978
10.53303786,4.867050171,0.5260500312,-8.44904995,0.01113750041,-0.0309375003,-0.01526249945
10.55303786,4.90500021,0.5070000291,-8.42895031,0.01471249945,-0.03657500073,-0.02241249941
10.57303786,4.90500021,0.5070000291,-8.44904995,0.01086249948,-0.03533750027,-0.01608750038
10.59303786,4.867050171,0.5260500312,-8.42895031,-0.0009624999948,-0.02997500077,0.003162499983
10.61303786,4.885950089,0.4500000179,-8.410050392,-0.01003750041,-0.02241249941,0.0175999999
10.63303786,4.84800005,0.4309500158,-8.391000748,-0.01526249945,-0.01966249943,0.02777500078
10.65303786,4.789950371,0.4500000179,-8.42895031,-0.02694999985,-0.01567500085,0.0496375002
10.67303786,4.828050137,0.487950027,-8.44904995,-0.01127499994,-0.006599999964,0.04015000165
10.69303786,4.809000015,0.487950027,-8.44904995,-0.002474999987,-0.004124999978,0.0305249989
10.71303786,4.84800005,0.5070000291,-8.487000465,0.006737499963,-0.001099999994,0.01196249947
10.73303786,4.867050171,0.5070000291,-8.487000465,0.01141249947,-0.0001374999993,-0.003437499981
10.75303786,4.771050453,0.46905002,-8.42895031,0.0116875004,-0.001649999991,-0.005362499971
10.77303786,4.771050453,0.46905002,-8.467950821,0.007974999957,-0.00549999997,-0.001374999993
10.79303786,4.789950371,0.4120500088,-8.467950821,0.004812499974,-0.004537499975,0.002062499989
10.81303786,4.84800005,0.3919500113,-8.467950821,0.01196249947,-0.01182499994,0.01113750041
10.83303786,4.771050453,0.3919500113,-8.44904995,0.02227500081,-0.01677500084,0.01127499994
10.85303786,4.789950371,0.3919500113,-8.487000465,0.0369874984,-0.02076249942,-0.0
10.87303786,4.732950211,0.3919500113,-8.44904995,0.04743750021,-0.02213750035,-0.01498750038
10.89303786,4.714050293,0.4500000179,-8.524950027,0.05816249922,-0.02419999987,-0.04001250118
10.91303786,4.714050293,0.4309500158,-8.50605011,0.0734250024,-0.02777500078,-0.07672499865
10.93303786,4.693950176,0.487950027,-8.467950821,0.08579999954,-0.02956249937,-0.105462499
10.95303786,4.714050293,0.5260500312,-8.524950027,0.08827500045,-0.03492499888,-0.116187498
10.97303786,4.752000332,0.487950027,-8.467950821,0.08112499863,-0.04028749838,-0.1084875017
10.99303786,4.809000015,0.487950027,-8.44904995,0.07163749635,-0.03863750026,-0.09157499671
11.01303786,4.789950371,0.5070000291,-8.487000465,0.06379999965,-0.03176249936,-0.07851249725
11.03303786,4.752000332,0.5260500312,-8.44904995,0.05335000157,-0.0257124994,-0.07122500241
11.05303786,4.732950211,0.5260500312,-8.487000465,0.0427624993,-0.02254999988,-0.05981250107
11.07303786,4.732950211,0.487950027,-8.50605011,0.02144999988,-0.02543750033,-0.05981250107
11.09303786,4.752000332,0.46905002,-8.487000465,0.01374999993,-0.02584999986,-0.06379999965
11.11303786,4.714050293,0.4500000179,-8.50605011,0.004674999975,-0.02639999986,-0.06256250292
11.13303786,4.732950211,0.4500000179,-8.487000465,-0.00838750042,-0.02282499894,-0.04262499884
11.15303786,4.752000332,0.46905002,-8.44904995,-0.01691249944,-0.0186999999,-0.01938750036
11.17303786,4.732950211,0.4500000179,-8.487000465,-0.02364999987,-0.01347499993,-0.001099999994
11.19303786,4.752000332,0.46905002,-8.50605011,-0.0362999998,-0.008524999954,0.02846249938
11.21303786,4.732950211,0.4500000179,-8.487000465,-0.04482499883,0.0002749999985,0.05197500065
11.23303786,4.693950176,0.4309500158,-8.487000465,-0.0420750007,0.002337499987,0.05389999971
11.25303786,4.714050293,0.46905002,-8.44904995,-0.03313750029,0.0001374999993,0.04743750021
11.27303786,4.714050293,0.4500000179,-8.44904995,-0.02172499895,-0.0009624999948,0.03959999979
11.29303786,4.714050293,0.4309500158,-8.487000465,0.004537499975,-0.0009624999948,0.005224999972
11.31303786,4.752000332,0.46905002,-8.56305027,0.01154999994,-0.0009624999948,0.002887499984
11.33303786,4.771050453,0.487950027,-8.50605011,0.007699999958,-0.0006874999963,0.01347499993
11.35303786,4.771050453,0.46905002,-8.50605011,0.0001374999993,-0.0009624999948,0.02639999986
11.37303786,4.771050453,0.46905002,-8.44904995,-0.02488750033,-0.002612499986,0.06517499685
11.39303786,4.732950211,0.4500000179,-8.50605011,-0.03643750027,-0.004124999978,0.08387500048
11.41303786,4.714050293,0.4309500158,-8.467950821,-0.04702499881,-0.006049999967,0.09996250272
11.43303786,4.771050453,0.4309500158,-8.487000465,-0.04303750023,-0.004537499975,0.08855000138
11.45303786,4.732950211,0.4500000179,-8.487000465,-0.04413750023,-0.004399999976,0.08923749626
11.47303786,4.732950211,0.46905002,-8.467950821,-0.05486249924,-0.004674999975,0.1055999994
11.49303786,4.752000332,0.4500000179,-8.467950821,-0.07507500052,-0.004124999978,0.1343374997
11.51303786,4.732950211,0.46905002,-8.467950821,-0.08030000329,-0.004262499977,0.142037496
11.53303786,4.752000332,0.5070000291,-8.524950027,-0.08937499672,-0.002887499984,0.154825002
11.55303786,4.732950211,0.46905002,-8.467950821,-0.08387500048,-0.003299999982,0.1457500011
11.57303786,4.732950211,0.4500000179,-8.50605011,-0.07919999957,-0.004262499977,0.137637496
11.59303786,4.714050293,0.46905002,-8.467950821,-0.06998749822,-0.004537499975,0.1222374961
11.61303786,4.732950211,0.46905002,-8.487000465,-0.05348749831,-0.01017499994,0.09721250087
11.63303786,4.693950176,0.4500000179,-8.524950027,-0.04578749835,-0.01182499994,0.08401250094
11.65303786,4.714050293,0.4309500158,-8.467950821,-0.02846249938,-0.0127875004,0.05376249924
11.67303786,4.732950211,0.46905002,-8.467950821,-0.008524999954,-0.01251249947,0.0192499999
11.69303786,4.752000332,0.4120500088,-8.467950821,-0.001512499992,-0.01251249947,0.007562499959
11.71303786,4.732950211,0.487950027,-8.50605011,0.01361249946,-0.009624999948,-0.01787500083
11.73303786,4.752000332,0.5070000291,-8.487000465,0.03451250121,-0.005774999969,-0.05843750015
11.75303786,4.732950211,0.46905002,-8.467950821,0.03849999979,-0.005362499971,-0.06627500057
11.77303786,4.771050453,0.487950027,-8.487000465,0.0427624993,-0.004124999978,-0.07548750192
11.79303786,4.752000332,0.487950027,-8.487000465,0.04743750021,-0.001099999994,-0.09542500228
11.81303786,4.732950211,0.46905002,-8.467950821,0.04991250113,-0.0004124999978,-0.09927500039
11.83303786,4.693950176,0.487950027,-8.50605011,0.05307500064,0.0008249999955,-0.1027124971
11.85303786,4.752000332,0.46905002,-8.50605011,0.04688749835,0.00192499999,-0.08937499672
11.87303786,4.752000332,0.4500000179,-8.524950027,0.04193750024,0.00178749999,-0.08002500236
11.89303786,4.732950211,0.46905002,-8.50605011,0.03299999982,0.00371249998,-0.06297499686
11.91303786,4.693950176,0.4120500088,-8.44904995,0.02914999984,0.006737499963,-0.05582499877
11.93303786,4.732950211,0.5070000291,-8.50605011,0.02846249938,0.006737499963,-0.05403750017
11.95303786,4.714050293,0.46905002,-8.524950027,0.02474999987,0.004262499977,-0.05279999971
11.97303786,4.675050259,0.4500000179,-8.524950027,0.01883750036,0.002612499986,-0.04289999977
11.99303786,4.693950176,0.5070000291,-8.467950821,0.01443750039,-0.002062499989,-0.0309375003
12.01303786,4.732950211,0.5260500312,-8.50605011,0.0122375004,-0.006874999963,-0.02626249939
12.03303786,4.693950176,0.5070000291,-8.467950821,0.009487500414,-0.00811249949,-0.02103750035
12.05303786,4.732950211,0.487950027,-8.524950027,0.00742499996,-0.00838750042,-0.01938750036
12.07303786,4.714050293,0.5260500312,-8.487000465,0.008249999955,-0.009074999951,-0.02804999985
12.09303786,4.732950211,0.5070000291,-8.50605011,0.01209999993,-0.008937500417,-0.04509999976
12.11303786,4.732950211,0.5260500312,-8.487000465,0.01306249946,-0.007974999957,-0.0554125011
12.13303786,4.714050293,0.5260500312,-8.544000626,0.02529999986,-0.006324999966,-0.08249999583
12.15303786,4.714050293,0.487950027,-8.487000465,0.03396249935,-0.005774999969,-0.09432499856
12.17303786,4.675050259,0.5070000291,-8.487000465,0.02942499891,-0.005774999969,-0.08538749814
12.19303786,4.656000137,0.46905002,-8.487000465,0.02708750032,-0.007149999961,-0.07741250098
12.21303786,4.636950016,0.46905002,-8.487000465,0.02323750034,-0.006462499965,-0.06957499683
12.23303786,4.675050259,0.487950027,-8.50605011,0.02254999988,-0.007562499959,-0.0669625029
12.25303786,4.693950176,0.487950027,-8.50605011,0.02419999987,-0.009212499484,-0.06517499685
12.27303786,4.714050293,0.5070000291,-8.544000626,0.0192499999,-0.008524999954,-0.05142499879
12.29303786,4.714050293,0.487950027,-8.524950027,0.01553750038,-0.006737499963,-0.04152499884
12.31303786,4.752000332,0.487950027,-8.487000465,0.004399999976,-0.00549999997,-0.01897500083
12.33303786,4.752000332,0.5070000291,-8.467950821,-0.01251249947,-0.006049999967,0.0127875004
12.35303786,4.714050293,0.5260500312,-8.487000465,-0.02777500078,-0.004262499977,0.04221250117
12.37303786,4.752000332,0.487950027,-8.50605011,-0.04235000163,-0.006049999967,0.07315000147
12.39303786,4.714050293,0.46905002,-8.544000626,-0.04399999976,-0.006049999967,0.07851249725
12.41303786,4.732950211,0.46905002,-8.467950821,-0.04399999976,-0.005637499969,0.08195000142
12.43303786,4.675050259,0.46905002,-8.467950821,-0.0489500016,-0.003299999982,0.09982500225
12.45303786,4.675050259,0.487950027,-8.524950027,-0.04936249927,-0.001649999991,0.1031249985
12.47303786,4.714050293,0.487950027,-8.50605011,-0.04661250114,0.003162499983,0.09624999762
12.49303786,4.732950211,0.487950027,-8.524950027,-0.04166249931,0.004262499977,0.08415000141
12.51303786,4.714050293,0.5070000291,-8.544000626,-0.03932499886,0.004674999975,0.07933750004
12.53303786,4.693950176,0.5070000291,-8.544000626,-0.03382499889,0.002749999985,0.0683375001
12.55303786,4.752000332,0.487950027,-8.544000626,-0.0240624994,0.0001374999993,0.05224999785
12.57303786,4.752000332,0.4500000179,-8.56305027,-0.01966249943,0.0001374999993,0.04647500068
12.59303786,4.693950176,0.46905002,-8.487000465,-0.00178749999,0.0002749999985,0.01828750037
12.61303786,4.636950016,0.5260500312,-8.544000626,0.02213750035,0.001237499993,-0.02873750031
12.63303786,4.714050293,0.5260500312,-8.487000465,0.02474999987,-0.0001374999993,-0.03712499887
12.65303786,4.732950211,0.487950027,-8.487000465,0.02997500077,-0.0009624999948,-0.0496375002
12.67303786,4.714050293,0.5260500312,-8.487000465,0.04592499882,0.000549999997,-0.08676250279
12.69303786,4.693950176,0.5460000038,-8.524950027,0.04564999789,0.0002749999985,-0.08910000324
12.71303786,4.771050453,0.5070000291,-8.524950027,0.03684999794,0.0004124999978,-0.07864999771
12.73303786,4.771050453,0.5070000291,-8.544000626,0.0316249989,0.00192499999,-0.06916250288
12.75303786,4.752000332,0.5070000291,-8.544000626,0.03135000169,0.002474999987,-0.06888750196
12.77303786,4.714050293,0.5260500312,-8.467950821,0.02901249938,0.004262499977,-0.06352499872
12.79303786,4.732950211,0.5260500312,-8.487000465,0.01938750036,0.007837500423,-0.04784999788
12.81303786,4.732950211,0.5460000038,-8.50605011,0.01471249945,0.00742499996,-0.03987500072
12.83303786,4.693950176,0.5070000291,-8.487000465,0.01086249948,0.007149999961,-0.03959999979
12.85303786,4.732950211,0.5070000291,-8.487000465,-0.004399999976,0.007149999961,-0.008524999954
12.87303786,4.714050293,0.5460000038,-8.524950027,-0.01319999993,0.007012499962,0.009349999949
12.89303786,4.693950176,0.5070000291,-8.524950027,-0.0240624994,0.006737499963,0.02942499891
12.91303786,4.752000332,0.46905002,-8.487000465,-0.02873750031,0.005774999969,0.04042499885
12.93303786,4.693950176,0.5070000291,-8.487000465,-0.02928750031,0.005087499972,0.04262499884
12.95303786,4.693950176,0.5260500312,-8.487000465,-0.02543750033,0.004399999976,0.03946249932
12.97303786,4.656000137,0.487950027,-8.487000465,-0.01787500083,0.00178749999,0.03437500075
12.99303786,4.675050259,0.487950027,-8.524950027,-0.006187499966,0.0006874999963,0.01787500083
13.01303786,4.693950176,0.487950027,-8.50605011,0.005224999972,-0.003849999979,-0.002337499987
13.03303786,4.693950176,0.5070000291,-8.50605011,0.01993750036,-0.01017499994,-0.02694999985
13.05303786,4.693950176,0.5260500312,-8.50605011,0.0257124994,-0.01127499994,-0.03822499886
13.07303786,4.732950211,0.5260500312,-8.524950027,0.02873750031,-0.01127499994,-0.0438624993
13.09303786,4.809000015,0.46905002,-8.487000465,0.02997500077,-0.01086249948,-0.04757500067
13.11303786,4.675050259,0.5260500312,-8.487000465,0.03492499888,-0.006324999966,-0.05555000156
13.13303786,4.714050293,0.46905002,-8.50605011,0.0427624993,-0.003849999979,-0.06503749639
13.15303786,4.714050293,0.46905002,-8.467950821,0.04661250114,-0.001374999993,-0.06943749636
13.17303786,4.693950176,0.5070000291,-8.487000465,0.04509999976,0.0,-0.06806249917
13.19303786,4.714050293,0.5070000291,-8.524950027,0.0431750007,0.0009624999948,-0.06613750011
13.21303786,4.752000332,0.487950027,-8.42895031,0.0380874984,0.0009624999948,-0.05898749828
13.23303786,4.714050293,0.487950027,-8.467950821,0.03409999982,0.003437499981,-0.05362499878
13.25303786,4.714050293,0.4500000179,-8.524950027,0.02681249939,0.003437499981,-0.04028749838
13.27303786,4.693950176,0.46905002,-8.524950027,0.0186999999,0.005637499969,-0.02199999988
13.29303786,4.714050293,0.5260500312,-8.524950027,0.01196249947,0.007974999957,-0.005637499969
13.31303786,4.752000332,0.5460000038,-8.524950027,0.0001374999993,0.008662499487,0.01746249944
13.33303786,4.732950211,0.487950027,-8.524950027,-0.01072499994,0.007012499962,0.03355000168
13.35303786,4.693950176,0.5070000291,-8.50605011,-0.0192499999,0.002062499989,0.04564999789
13.37303786,4.656000137,0.487950027,-8.487000465,-0.02254999988,0.0001374999993,0.04977500066
13.39303786,4.636950016,0.4500000179,-8.44904995,-0.01636249945,-0.00371249998,0.0367125012
13.41303786,4.675050259,0.4120500088,-8.524950027,-0.006599999964,-0.009487500414,0.01787500083
13.43303786,4.656000137,0.487950027,-8.487000465,0.0004124999978,-0.007012499962,0.004674999975
13.45303786,4.732950211,0.46905002,-8.524950027,0.0,0.0,0.0
13.47303786,4.693950176,0.5070000291,-8.524950027,0.006462499965,-0.005087499972,-0.007287499961
13.49303786,4.693950176,0.5070000291,-8.50605011,0.003574999981,-0.006324999966,-0.004399999976
13.51303786,4.732950211,0.487950027,-8.487000465,0.0,-0.006599999964,-0.002062499989
13.53303786,4.693950176,0.5260500312,-8.467950821,-0.004262499977,-0.007012499962,-0.00192499999
13.55303786,4.675050259,0.487950027,-8.50605011,0.00178749999,-0.00549999997,-0.009349999949
13.57303786,4.675050259,0.5260500312,-8.467950821,0.005224999972,-0.004262499977,-0.01388750039
13.59303786,4.656000137,0.5260500312,-8.50605011,0.01251249947,-0.003162499983,-0.02804999985
13.61303786,4.675050259,0.487950027,-8.524950027,0.01663750038,-0.00178749999,-0.03767500073
13.63303786,4.693950176,0.487950027,-8.544000626,0.01319999993,-0.001374999993,-0.03492499888
13.65303786,4.714050293,0.487950027,-8.50605011,0.005774999969,-0.001374999993,-0.02956249937
13.67303786,4.675050259,0.5460000038,-8.524950027,-0.009349999949,-0.001374999993,0.002612499986
13.69303786,4.656000137,0.5070000291,-8.50605011,-0.01374999993,-0.00192499999,0.01182499994
13.71303786,4.693950176,0.46905002,-8.487000465,-0.02543750033,-0.004812499974,0.03423750028
13.73303786,4.714050293,0.487950027,-8.467950821,-0.03602499887,-0.004399999976,0.05898749828
13.75303786,4.693950176,0.5260500312,-8.487000465,-0.03616249934,-0.004399999976,0.06311249733
13.77303786,4.675050259,0.46905002,-8.467950821,-0.0367125012,-0.003987499978,0.06710000336
13.79303786,4.693950176,0.487950027,-8.467950821,-0.04028749838,-0.003162499983,0.07369999588
13.81303786,4.771050453,0.5070000291,-8.487000465,-0.04111250117,-0.003437499981,0.07617499679
13.83303786,4.714050293,0.5460000038,-8.50605011,-0.04331250116,-0.004124999978,0.08263749629
13.85303786,4.693950176,0.5070000291,-8.487000465,-0.04812499881,-0.005362499971,0.08882500231
13.87303786,4.636950016,0.487950027,-8.50605011,-0.04647500068,-0.006049999967,0.08511249721
13.89303786,4.675050259,0.487950027,-8.50605011,-0.04358749837,-0.007149999961,0.07823749632
13.91303786,4.714050293,0.487950027,-8.50605011,-0.04235000163,-0.007149999961,0.0628374964
13.93303786,4.714050293,0.487950027,-8.50605011,-0.04235000163,-0.007149999961,0.0628374964
13.95303786,4.656000137,0.4500000179,-8.50605011,-0.04179999977,-0.006874999963,0.05788749829
13.97303786,4.675050259,0.5070000291,-8.50605011,-0.03382499889,-0.008524999954,0.04784999788
13.99303786,4.693950176,0.46905002,-8.524950027,-0.02997500077,-0.009349999949,0.04235000163
14.01303786,4.714050293,0.487950027,-8.524950027,-0.02158750035,-0.00838750042,0.0298375003
14.03303786,4.693950176,0.4500000179,-8.544000626,-0.01429999992,-0.006324999966,0.02117500082
14.05303786,4.656000137,0.5260500312,-8.50605011,-0.01292499993,-0.008249999955,0.02309999987
14.07303786,4.693950176,0.487950027,-8.544000626,-0.01044999994,-0.009349999949,0.02062499896
14.09303786,4.714050293,0.5070000291,-8.50605011,-0.009487500414,-0.008799999952,0.01952499896
14.11303786,4.714050293,0.46905002,-8.524950027,-0.009212499484,-0.006462499965,0.0233750008
14.13303786,4.675050259,0.5070000291,-8.50605011,-0.007012499962,-0.002887499984,0.01883750036
14.15303786,4.656000137,0.5070000291,-8.487000465,-0.006049999967,-0.00192499999,0.01718750037
14.17303786,4.714050293,0.5070000291,-8.524950027,-0.003024999984,-0.001512499992,0.01512499992
14.19303786,4.714050293,0.46905002,-8.524950027,0.01979999989,0.001099999994,-0.02117500082
14.21303786,4.636950016,0.46905002,-8.487000465,0.02158750035,0.002199999988,-0.0251624994
14.23303786,4.693950176,0.5070000291,-8.544000626,0.01333750039,0.002062499989,-0.01237499993
14.25303786,4.693950176,0.5070000291,-8.524950027,0.0,0.0,0.0
14.27303786,4.714050293,0.5070000291,-8.544000626,0.0,0.0,0.0
14.29303786,4.675050259,0.5260500312,-8.544000626,0.002062499989,-0.0006874999963,-0.006599999964
14.31303786,4.675050259,0.487950027,-8.50605011,0.007562499959,0.000549999997,-0.01663750038
14.33303786,4.693950176,0.5070000291,-8.487000465,0.01333750039,0.001649999991,-0.02694999985
14.35303786,4.675050259,0.5070000291,-8.544000626,0.02282499894,0.003162499983,-0.04551250115
14.37303786,4.675050259,0.487950027,-8.544000626,0.02186249942,0.002474999987,-0.0431750007
14.39303786,4.714050293,0.5260500312,-8.524950027,0.01952499896,0.002062499989,-0.03877500072
14.41303786,4.714050293,0.487950027,-8.524950027,0.009212499484,0.001099999994,-0.0192499999
14.43303786,4.714050293,0.5260500312,-8.524950027,-0.009074999951,-0.00178749999,0.01498750038
14.45303786,4.656000137,0.5070000291,-8.544000626,-0.01058750041,-0.001374999993,0.01704999991
14.47303786,4.656000137,0.5460000038,-8.524950027,0.0,0.0,0.0
14.49303786,4.656000137,0.5260500312,-8.467950821,0.01539999992,0.0008249999955,-0.03368749842
14.51303786,4.693950176,0.46905002,-8.50605011,0.01911249943,0.001099999994,-0.03987500072
14.53303786,4.618050098,0.5070000291,-8.50605011,0.02653750032,0.0008249999955,-0.05238749832
14.55303786,4.675050259,0.487950027,-8.524950027,0.03299999982,-0.00178749999,-0.06393750012
14.57303786,4.675050259,0.5260500312,-8.50605011,0.0309375003,-0.002474999987,-0.05926249921
14.59303786,4.693950176,0.5070000291,-8.544000626,0.02378750034,-0.002749999985,-0.04372499883
14.61303786,4.714050293,0.5260500312,-8.524950027,0.01031249948,-0.004949999973,-0.01993750036
14.63303786,4.675050259,0.5260500312,-8.544000626,0.00742499996,-0.005774999969,-0.01498750038
14.65303786,4.656000137,0.487950027,-8.50605011,0.008249999955,-0.00742499996,-0.01622499898
14.67303786,4.656000137,0.5460000038,-8.50605011,0.01319999993,-0.005362499971,-0.02474999987
14.69303786,4.636950016,0.487950027,-8.524950027,0.0127875004,-0.004949999973,-0.0240624994
14.71303786,4.675050259,0.487950027,-8.544000626,0.006599999964,-0.004262499977,-0.01237499993
14.73303786,4.693950176,0.487950027,-8.524950027,-0.009762499481,-0.006599999964,0.02199999988
14.75303786,4.656000137,0.5070000291,-8.544000626,-0.01388750039,-0.006874999963,0.03286249936
14.77303786,4.693950176,0.5070000291,-8.524950027,-0.01856249943,-0.007974999957,0.04056249931
14.79303786,4.656000137,0.487950027,-8.544000626,-0.02213750035,-0.006599999964,0.04482499883
14.81303786,4.714050293,0.5260500312,-8.544000626,-0.02089999989,-0.00549999997,0.04166249931
14.83303786,4.656000137,0.5260500312,-8.524950027,-0.01622499898,-0.004399999976,0.03107500076
14.85303786,4.732950211,0.487950027,-8.544000626,-0.006049999967,-0.0001374999993,0.007699999958
14.87303786,4.714050293,0.46905002,-8.50605011,0.0,0.0,0.0
14.89303786,4.618050098,0.487950027,-8.50605011,0.008662499487,0.003987499978,-0.01842499897
14.91303786,4.656000137,0.487950027,-8.50605011,0.01636249945,0.003574999981,-0.0305249989
14.93303786,4.618050098,0.46905002,-8.524950027,0.01883750036,0.002062499989,-0.03478749841
14.95303786,4.675050259,0.46905002,-8.524950027,0.02296249941,0.0004124999978,-0.04028749838
14.97303786,4.618050098,0.5260500312,-8.544000626,0.02309999987,-0.0002749999985,-0.03987500072
14.99303786,4.656000137,0.487950027,-8.544000626,0.02144999988,-0.0001374999993,-0.03684999794
15.01303786,4.656000137,0.487950027,-8.524950027,0.01402499992,0.0001374999993,-0.02076249942
15.03303786,4.656000137,0.5070000291,-8.56305027,0.01099999994,0.000549999997,-0.01457499992
15.05303786,4.675050259,0.487950027,-8.544000626,0.008662499487,0.001237499993,-0.009487500414
15.07303786,4.752000332,0.5070000291,-8.487000465,-0.008937500417,-0.0002749999985,0.03313750029
15.09303786,4.693950176,0.5460000038,-8.524950027,-0.01581249945,-0.0004124999978,0.04688749835
15.11303786,4.656000137,0.5070000291,-8.50605011,-0.02433750033,-0.0001374999993,0.05995000154
15.13303786,4.675050259,0.46905002,-8.544000626,-0.02681249939,-0.00178749999,0.05843750015
15.15303786,4.636950016,0.487950027,-8.487000465,-0.02653750032,-0.00178749999,0.0567874983
15.17303786,4.636950016,0.5070000291,-8.544000626,-0.02818750031,-0.002062499989,0.05362499878
15.19303786,4.656000137,0.5070000291,-8.544000626,-0.02474999987,-0.001649999991,0.03726249933
15.21303786,4.675050259,0.5260500312,-8.467950821,-0.02323750034,-0.001512499992,0.03368749842
15.23303786,4.675050259,0.5070000291,-8.524950027,-0.02419999987,-0.0006874999963,0.0309375003
15.25303786,4.656000137,0.487950027,-8.524950027,-0.02144999988,0.0001374999993,0.02722499892
15.27303786,4.675050259,0.487950027,-8.524950027,-0.01897500083,-0.0,0.0244750008
15.29303786,4.656000137,0.46905002,-8.56305027,-0.01471249945,-0.0001374999993,0.01897500083
15.31303786,4.675050259,0.5070000291,-8.544000626,0.0116875004,-0.002062499989,-0.02763750032
15.33303786,4.675050259,0.5260500312,-8.524950027,0.01801249944,-0.002337499987,-0.03891250119
15.35303786,4.656000137,0.5070000291,-8.50605011,0.02213750035,-0.003024999984,-0.04675000161
15.37303786,4.675050259,0.487950027,-8.583000183,0.02612499893,-0.002062499989,-0.05788749829
15.39303786,4.693950176,0.487950027,-8.524950027,0.02736249939,-0.001374999993,-0.05706249923
15.41303786,4.656000137,0.5070000291,-8.524950027,0.02942499891,-0.0008249999955,-0.05664999783
15.43303786,4.675050259,0.487950027,-8.524950027,0.0303875003,0.002199999988,-0.0543125011
15.45303786,4.636950016,0.46905002,-8.50605011,0.03121249937,0.002749999985,-0.05513750017
15.47303786,4.656000137,0.487950027,-8.544000626,0.03506249934,0.002337499987,-0.05692499876
15.49303786,4.636950016,0.5070000291,-8.50605011,0.02956249937,0.002612499986,-0.04977500066
15.51303786,4.656000137,0.5070000291,-8.487000465,0.02763750032,0.002062499989,-0.04757500067
15.53303786,4.636950016,0.487950027,-8.544000626,0.0246124994,0.000549999997,-0.04399999976
15.55303786,4.656000137,0.487950027,-8.544000626,0.01416249946,0.0001374999993,-0.0257124994
15.57303786,4.618050098,0.487950027,-8.50605011,0.01113750041,-0.0,-0.01938750036
15.59303786,4.636950016,0.5460000038,-8.544000626,0.007699999958,-0.0002749999985,-0.01251249947
15.61303786,4.693950176,0.5070000291,-8.524950027,-0.01127499994,-0.002474999987,0.02323750034
15.63303786,4.675050259,0.4500000179,-8.50605011,-0.01704999991,-0.004124999978,0.03286249936
15.65303786,4.618050098,0.46905002,-8.544000626,-0.02254999988,-0.007149999961,0.04289999977
15.67303786,4.599000454,0.5070000291,-8.487000465,-0.01911249943,-0.01003750041,0.03409999982
15.69303786,4.618050098,0.46905002,-8.544000626,-0.01471249945,-0.01044999994,0.02612499893
15.71303786,4.656000137,0.4500000179,-8.50605011,-0.005912499968,-0.01017499994,0.01003750041
15.73303786,4.618050098,0.46905002,-8.524950027,0.001512499992,-0.01182499994,-0.0009624999948
15.75303786,4.656000137,0.487950027,-8.487000465,0.003299999982,-0.01292499993,-0.003574999981
15.77303786,4.656000137,0.46905002,-8.524950027,0.004262499977,-0.01099999994,-0.002337499987
15.79303786,4.675050259,0.4500000179,-8.50605011,-0.001099999994,-0.007287499961,0.004262499977
15.81303786,4.675050259,0.4500000179,-8.50605011,-0.001099999994,-0.007287499961,0.004262499977
15.83303786,4.675050259,0.5260500312,-8.524950027,0.0,0.0,0.0
15.85303786,4.675050259,0.5070000291,-8.524950027,0.006737499963,-0.0008249999955,-0.008524999954
15.87303786,4.599000454,0.5260500312,-8.524950027,0.01402499992,-0.000549999997,-0.02227500081
15.89303786,4.656000137,0.5460000038,-8.56305027,0.0244750008,-0.0001374999993,-0.04289999977
15.91303786,4.675050259,0.46905002,-8.524950027,0.01691249944,-0.001649999991,-0.02969999984
15.93303786,4.693950176,0.5070000291,-8.544000626,0.01141249947,-0.002062499989,-0.01979999989
15.95303786,4.656000137,0.5070000291,-8.524950027,0.002887499984,0.0008249999955,-0.006187499966
15.97303786,4.675050259,0.5070000291,-8.524950027,-0.01127499994,0.007699999958,0.02034999989
15.99303786,4.636950016,0.5070000291,-8.56305027,-0.01471249945,0.008249999955,0.02694999985
16.01303786,4.693950176,0.487950027,-8.524950027,-0.01484999992,0.00549999997,0.02846249938
16.03303786,4.636950016,0.46905002,-8.524950027,-0.009487500414,0.003437499981,0.02433750033
16.05303786,4.675050259,0.46905002,-8.524950027,-0.008937500417,0.002474999987,0.0246124994
16.07303786,4.675050259,0.5070000291,-8.544000626,-0.008249999955,-0.0002749999985,0.02543750033
16.09303786,4.636950016,0.46905002,-8.544000626,-0.00811249949,0.0001374999993,0.02818750031
16.11303786,4.656000137,0.5070000291,-8.544000626,-0.009074999951,0.0006874999963,0.03107500076
16.13303786,4.656000137,0.5070000291,-8.50605011,-0.01732499897,0.0002749999985,0.04606249928
16.15303786,4.675050259,0.5650500059,-8.56305027,-0.01842499897,0.0001374999993,0.04496249929
16.17303786,4.618050098,0.5460000038,-8.56305027,-0.01856249943,-0.0004124999978,0.04028749838
16.19303786,4.656000137,0.487950027,-8.50605011,-0.01718750037,-0.002199999988,0.03148749843
16.21303786,4.675050259,0.4500000179,-8.50605011,-0.01883750036,-0.003437499981,0.02887500077
16.23303786,4.636950016,0.46905002,-8.524950027,-0.01718750037,-0.003437499981,0.02557500079
16.25303786,4.675050259,0.4500000179,-8.524950027,-0.003987499978,-0.001649999991,0.005362499971
16.27303786,4.656000137,0.4120500088,-8.487000465,-0.004537499975,-0.001512499992,0.007012499962
16.29303786,4.618050098,0.46905002,-8.544000626,-0.006187499966,-0.0004124999978,0.01718750037
16.31303786,4.656000137,0.487950027,-8.583000183,-0.00811249949,-0.001374999993,0.02089999989
16.33303786,4.675050259,0.46905002,-8.544000626,-0.01196249947,-0.00178749999,0.02791249938
16.35303786,4.656000137,0.487950027,-8.524950027,-0.0175999999,-0.00178749999,0.03684999794
16.37303786,4.636950016,0.5460000038,-8.524950027,-0.01031249948,-0.002199999988,0.01979999989
16.39303786,4.656000137,0.5260500312,-8.56305027,-0.007562499959,-0.002474999987,0.01333750039
16.41303786,4.675050259,0.5260500312,-8.524950027,0.0,0.0,0.0
16.43303786,4.636950016,0.5070000291,-8.487000465,0.03946249932,0.001649999991,-0.07796250284
16.45303786,4.636950016,0.487950027,-8.56305027,0.04908749834,0.003299999982,-0.09556250274
16.47303786,4.656000137,0.4500000179,-8.50605011,0.0607750006,0.004812499974,-0.1201749966
16.49303786,4.675050259,0.4500000179,-8.524950027,0.06861250103,0.005912499968,-0.1355749965
16.51303786,4.656000137,0.487950027,-8.56305027,0.06957499683,0.006462499965,-0.1370874941
16.53303786,4.656000137,0.487950027,-8.56305027,0.06847500056,0.006187499966,-0.1372250021
16.55303786,4.618050098,0.5070000291,-8.56305027,0.05238749832,0.003987499978,-0.1098624989
16.57303786,4.675050259,0.46905002,-8.524950027,0.04619999975,0.003437499981,-0.0984499976
16.59303786,4.693950176,0.5070000291,-8.524950027,0.0356125012,0.002887499984,-0.07631249726
16.61303786,4.618050098,0.487950027,-8.50605011,0.01746249944,0.004537499975,-0.0373999998
16.63303786,4.675050259,0.487950027,-8.524950027,0.009074999951,0.004812499974,-0.02117500082
16.65303786,4.693950176,0.46905002,-8.56305027,-0.01031249948,0.006187499966,0.02131249942
16.67303786,4.656000137,0.487950027,-8.544000626,-0.04482499883,0.00192499999,0.0984499976
16.69303786,4.599000454,0.5070000291,-8.487000465,-0.05486249924,0.0,0.1178374961
16.71303786,4.618050098,0.5460000038,-8.524950027,-0.06778749824,-0.002749999985,0.137637496
16.73303786,4.656000137,0.5070000291,-8.583000183,-0.073012501,-0.006462499965,0.1414874941
16.75303786,4.675050259,0.5070000291,-8.524950027,-0.07232499868,-0.007974999957,0.1384624988
16.77303786,4.675050259,0.5070000291,-8.487000465,-0.06847500056,-0.00742499996,0.1215500012
16.79303786,4.636950016,0.46905002,-8.524950027,-0.05115000159,-0.00549999997,0.09267500043
16.81303786,4.656000137,0.4500000179,-8.524950027,-0.04564999789,-0.005637499969,0.08359999955
16.83303786,4.636950016,0.487950027,-8.544000626,-0.02914999984,-0.00742499996,0.0543125011
16.85303786,4.675050259,0.4500000179,-8.583000183,-0.003024999984,-0.006599999964,0.006462499965
16.87303786,4.636950016,0.487950027,-8.56305027,0.0004124999978,-0.004812499974,0.0002749999985
16.89303786,4.656000137,0.5070000291,-8.487000465,0.006599999964,-0.009624999948,-0.01017499994
16.91303786,4.599000454,0.5070000291,-8.524950027,0.01484999992,-0.01196249947,-0.02873750031
16.93303786,4.636950016,0.46905002,-8.524950027,0.0175999999,-0.01113750041,-0.03616249934
16.95303786,4.636950016,0.46905002,-8.487000465,0.02103750035,-0.008662499487,-0.04441250116
16.97303786,4.618050098,0.487950027,-8.544000626,0.01911249943,-0.006737499963,-0.04056249931
16.99303786,4.599000454,0.5260500312,-8.524950027,0.01828750037,-0.006874999963,-0.03822499886
17.01303786,4.675050259,0.46905002,-8.544000626,0.01443750039,-0.00811249949,-0.03258749843
17.03303786,4.599000454,0.46905002,-8.50605011,0.006324999966,-0.006874999963,-0.02309999987
17.05303786,4.599000454,0.487950027,-8.524950027,0.006049999967,-0.006599999964,-0.02529999986
17.07303786,4.693950176,0.5070000291,-8.583000183,0.006737499963,-0.006049999967,-0.03079999983
17.09303786,4.675050259,0.487950027,-8.544000626,-0.004949999973,-0.004812499974,-0.0004124999978
17.11303786,4.618050098,0.46905002,-8.50605011,-0.01141249947,-0.004262499977,0.01361249946
17.13303786,4.656000137,0.5260500312,-8.56305027,-0.02296249941,-0.003849999979,0.0369874984
17.15303786,4.636950016,0.487950027,-8.524950027,-0.02543750033,-0.002749999985,0.04482499883
17.17303786,4.675050259,0.487950027,-8.524950027,-0.02433750033,-0.002474999987,0.04468749836
17.19303786,4.618050098,0.46905002,-8.50605011,-0.01993750036,0.002199999988,0.03973750025
17.21303786,4.599000454,0.4500000179,-8.56305027,-0.01718750037,0.003162499983,0.03781250119
17.23303786,4.656000137,0.4500000179,-8.524950027,-0.01127499994,0.00192499999,0.03409999982
17.25303786,4.618050098,0.4500000179,-8.524950027,-0.002887499984,0.003987499978,0.0369874984
17.27303786,4.636950016,0.4500000179,-8.524950027,0.000549999997,0.004537499975,0.03368749842
17.29303786,4.618050098,0.5070000291,-8.56305027,0.006324999966,0.005087499972,0.0251624994
17.31303786,4.636950016,0.5070000291,-8.544000626,0.002887499984,0.006187499966,0.01828750037
17.33303786,4.693950176,0.487950027,-8.467950821,0.002612499986,0.006737499963,0.01526249945
17.35303786,4.714050293,0.487950027,-8.50605011,0.003849999979,0.006874999963,0.005774999969
17.37303786,4.675050259,0.487950027,-8.524950027,0.005224999972,0.008249999955,-0.0006874999963
17.39303786,4.618050098,0.5070000291,-8.524950027,0.005912499968,0.01044999994,0.0009624999948
17.41303786,4.636950016,0.487950027,-8.524950027,0.003162499983,0.009762499481,0.003849999979
17.43303786,4.636950016,0.487950027,-8.56305027,-0.002749999985,0.007012499962,0.01154999994
17.45303786,4.656000137,0.487950027,-8.524950027,-0.007149999961,0.006324999966,0.01842499897
17.47303786,4.675050259,0.5070000291,-8.524950027,-0.01649999991,0.006599999964,0.03244999796
17.49303786,4.636950016,0.487950027,-8.487000465,-0.0251624994,0.007287499961,0.03231250122
17.51303786,4.693950176,0.46905002,-8.583000183,-0.02474999987,0.007699999958,0.02681249939
17.53303786,4.656000137,0.46905002,-8.50605011,-0.01952499896,0.008249999955,0.01773750037
17.55303786,4.636950016,0.487950027,-8.544000626,-0.01141249947,0.006049999967,0.01099999994
17.57303786,4.636950016,0.5070000291,-8.544000626,-0.01086249948,0.004812499974,0.01209999993
17.59303786,4.636950016,0.46905002,-8.524950027,-0.01127499994,0.001512499992,0.01993750036
17.61303786,4.599000454,0.487950027,-8.524950027,-0.006049999967,-0.006187499966,0.0127875004
17.63303786,4.656000137,0.46905002,-8.544000626,-0.002749999985,-0.006737499963,0.006599999964
17.65303786,4.656000137,0.487950027,-8.56305027,0.005637499969,-0.005224999972,-0.007699999958
17.67303786,4.636950016,0.46905002,-8.583000183,0.0175999999,-0.003987499978,-0.02873750031
17.69303786,4.656000137,0.487950027,-8.524950027,0.02213750035,-0.004124999978,-0.03684999794
17.71303786,4.636950016,0.46905002,-8.524950027,0.02584999986,-0.00371249998,-0.0427624993
17.73303786,4.656000137,0.4309500158,-8.487000465,0.01594999991,-0.003299999982,-0.02392499894
17.75303786,4.618050098,0.46905002,-8.524950027,0.01209999993,-0.003437499981,-0.01498750038
17.77303786,4.618050098,0.46905002,-8.524950027,0.007012499962,-0.004537499975,-0.005224999972
17.79303786,4.636950016,0.5260500312,-8.56305027,-0.01416249946,-0.007699999958,0.03313750029
17.81303786,4.732950211,0.4309500158,-8.544000626,-0.01691249944,-0.007149999961,0.03877500072
17.83303786,4.693950176,0.5070000291,-8.487000465,-0.01402499992,-0.003849999979,0.03657500073
17.85303786,4.656000137,0.5070000291,-8.524950027,-0.004537499975,0.001237499993,0.01773750037
17.87303786,4.675050259,0.46905002,-8.544000626,-0.005362499971,0.004399999976,0.01828750037
17.89303786,4.675050259,0.46905002,-8.524950027,-0.004674999975,0.005912499968,0.01512499992
17.91303786,4.618050098,0.4500000179,-8.524950027,0.0,0.0,0.0
17.93303786,4.618050098,0.4500000179,-8.487000465,-0.0,0.002887499984,0.006324999966
17.95303786,4.618050098,0.46905002,-8.56305027,-0.001099999994,0.00192499999,0.0127875004
17.97303786,4.636950016,0.4500000179,-8.50605011,0.0116875004,0.001099999994,-0.002337499987
17.99303786,4.675050259,0.487950027,-8.524950027,0.0181499999,0.0008249999955,-0.01388750039
18.01303786,4.636950016,0.487950027,-8.544000626,0.0303875003,0.002337499987,-0.03973750025
18.03303786,4.636950016,0.46905002,-8.544000626,0.0356125012,0.00371249998,-0.05376249924
18.05303786,4.675050259,0.4500000179,-8.544000626,0.03423750028,0.004124999978,-0.05238749832
18.07303786,4.675050259,0.46905002,-8.524950027,0.03189999983,0.004399999976,-0.05183750018
18.09303786,4.656000137,0.46905002,-8.467950821,0.02818750031,0.006462499965,-0.04936249927
18.11303786,4.636950016,0.46905002,-8.524950027,0.02612499893,0.006049999967,-0.04564999789
18.13303786,4.618050098,0.4500000179,-8.524950027,0.0240624994,0.005637499969,-0.04331250116
18.15303786,4.618050098,0.4500000179,-8.544000626,0.01842499897,0.004537499975,-0.0362999998
18.17303786,4.636950016,0.487950027,-8.56305027,0.01677500084,0.004399999976,-0.03409999982
18.19303786,4.636950016,0.46905002,-8.524950027,0.01306249946,0.002062499989,-0.03121249937
18.21303786,4.675050259,0.46905002,-8.524950027,0.01058750041,0.0001374999993,-0.03478749841
18.23303786,4.636950016,0.487950027,-8.544000626,0.009762499481,-0.0008249999955,-0.03533750027
18.25303786,4.636950016,0.5070000291,-8.583000183,0.004399999976,-0.00371249998,-0.02227500081
18.27303786,4.636950016,0.46905002,-8.544000626,0.01044999994,-0.005224999972,-0.03409999982
18.29303786,4.618050098,0.4500000179,-8.56305027,0.01498750038,-0.005224999972,-0.04262499884
18.31303786,4.599000454,0.5260500312,-8.544000626,0.02612499893,-0.006874999963,-0.06256250292
18.33303786,4.636950016,0.46905002,-8.50605011,0.02818750031,-0.007699999958,-0.06737499684
18.35303786,4.656000137,0.5070000291,-8.524950027,0.02433750033,-0.008799999952,-0.05857500061
18.37303786,4.636950016,0.487950027,-8.56305027,0.002612499986,-0.00742499996,-0.01416249946
18.39303786,4.618050098,0.46905002,-8.583000183,-0.001237499993,-0.006462499965,-0.005362499971
18.41303786,4.675050259,0.5070000291,-8.56305027,-0.006462499965,-0.008799999952,0.005087499972
18.43303786,4.618050098,0.46905002,-8.56305027,-0.01361249946,-0.008662499487,0.01828750037
18.45303786,4.618050098,0.487950027,-8.524950027,-0.01553750038,-0.008249999955,0.02021249942
18.47303786,4.636950016,0.5260500312,-8.544000626,-0.01787500083,-0.009074999951,0.02296249941
18.49303786,4.636950016,0.5260500312,-8.50605011,-0.03327500075,-0.009212499484,0.05169999972
18.51303786,4.579950333,0.4500000179,-8.524950027,-0.04111250117,-0.008937500417,0.06806249917
18.53303786,4.636950016,0.487950027,-8.544000626,-0.05156249925,-0.008524999954,0.08964999765
18.55303786,4.656000137,0.487950027,-8.524950027,-0.04908749834,-0.007974999957,0.09075000137
18.57303786,4.618050098,0.5070000291,-8.56305027,-0.04413750023,-0.00742499996,0.08470000327
18.59303786,4.618050098,0.5260500312,-8.544000626,-0.03079999983,-0.007012499962,0.05829999968
18.61303786,4.618050098,0.5260500312,-8.544000626,-0.01484999992,-0.007699999958,0.0246124994
18.63303786,4.693950176,0.487950027,-8.524950027,-0.009762499481,-0.007012499962,0.01374999993
18.65303786,4.656000137,0.5070000291,-8.56305027,-0.0,-0.002887499984,-0.006187499966
18.67303786,4.618050098,0.487950027,-8.544000626,0.01402499992,-0.0,-0.0309375003
18.69303786,4.579950333,0.46905002,-8.524950027,0.02007500082,0.001374999993,-0.04069999978
18.71303786,4.579950333,0.5070000291,-8.544000626,0.03244999796,0.002887499984,-0.06215000153
18.73303786,4.618050098,0.46905002,-8.524950027,0.05046249926,0.003024999984,-0.09157499671
18.75303786,4.599000454,0.487950027,-8.544000626,0.05472499877,0.003162499983,-0.098862499
18.77303786,4.56000042,0.487950027,-8.544000626,0.05692499876,0.001237499993,-0.1040875018
18.79303786,4.618050098,0.5070000291,-8.524950027,0.04152499884,0.0,-0.07590000331
18.81303786,4.636950016,0.5070000291,-8.56305027,0.03176249936,-0.0009624999948,-0.05802499875
18.83303786,4.636950016,0.5070000291,-8.56305027,0.01388750039,-0.001237499993,-0.02584999986
18.85303786,4.636950016,0.5070000291,-8.544000626,0.003437499981,-0.00192499999,-0.002887499984
18.87303786,4.618050098,0.487950027,-8.56305027,0.0,0.0,0.0
18.89303786,4.618050098,0.487950027,-8.583000183,-0.00178749999,-0.002337499987,0.01154999994
18.91303786,4.540950298,0.46905002,-8.544000626,0.002337499987,-0.006737499963,0.006737499963
18.93303786,4.636950016,0.46905002,-8.583000183,0.004399999976,-0.008249999955,0.002887499984
18.95303786,4.618050098,0.46905002,-8.524950027,0.006462499965,-0.007287499961,-0.001237499993
18.97303786,4.636950016,0.487950027,-8.524950027,0.00178749999,-0.006049999967,0.005637499969
18.99303786,4.656000137,0.5070000291,-8.583000183,0.0001374999993,-0.005912499968,0.007837500423
19.01303786,4.599000454,0.487950027,-8.56305027,-0.00371249998,-0.003574999981,0.01374999993
19.03303786,4.636950016,0.5260500312,-8.544000626,-0.004262499977,-0.001099999994,0.008799999952
19.05303786,4.599000454,0.5260500312,-8.524950027,-0.003162499983,-0.0006874999963,0.006187499966
19.07303786,4.599000454,0.46905002,-8.544000626,0.002612499986,-0.001374999993,-0.003849999979
19.09303786,4.599000454,0.46905002,-8.583000183,0.01402499992,-0.002337499987,-0.02364999987
19.11303786,4.618050098,0.46905002,-8.56305027,0.01264999993,-0.003437499981,-0.02117500082
19.13303786,4.636950016,0.487950027,-8.524950027,0.003024999984,-0.005362499971,-0.003162499983
19.15303786,4.636950016,0.5070000291,-8.544000626,-0.01374999993,-0.007562499959,0.02667500079
19.17303786,4.618050098,0.5070000291,-8.524950027,-0.02296249941,-0.007012499962,0.04248749837
19.19303786,4.636950016,0.487950027,-8.544000626,-0.03313750029,-0.005912499968,0.05403750017
19.21303786,4.618050098,0.46905002,-8.50605011,-0.02488750033,-0.002749999985,0.03244999796
19.23303786,4.618050098,0.46905002,-8.50605011,-0.02158750035,-0.001099999994,0.02653750032
19.25303786,4.636950016,0.46905002,-8.583000183,-0.006049999967,0.001649999991,0.003024999984
19.27303786,4.599000454,0.46905002,-8.524950027,0.02034999989,0.001374999993,-0.04455000162
19.29303786,4.579950333,0.46905002,-8.56305027,0.02089999989,-0.0009624999948,-0.04482499883
19.31303786,4.618050098,0.46905002,-8.524950027,0.01526249945,-0.00178749999,-0.02997500077
19.33303786,4.579950333,0.5260500312,-8.544000626,0.0122375004,-0.001237499993,-0.02474999987
19.35303786,4.618050098,0.5839500427,-8.56305027,0.01182499994,-0.0008249999955,-0.0244750008
19.37303786,4.618050098,0.5260500312,-8.583000183,0.01127499994,0.001237499993,-0.03079999983
19.39303786,4.675050259,0.5070000291,-8.583000183,0.01416249946,0.003987499978,-0.03822499886
19.41303786,4.56000042,0.5070000291,-8.56305027,0.01883750036,0.007562499959,-0.0431750007
19.43303786,4.56000042,0.4309500158,-8.524950027,0.01526249945,0.00371249998,-0.03299999982
19.45303786,4.579950333,0.4500000179,-8.583000183,0.01388750039,0.00178749999,-0.02997500077
19.47303786,4.599000454,0.46905002,-8.583000183,0.00811249949,-0.001649999991,-0.01773750037
19.49303786,4.579950333,0.487950027,-8.56305027,-0.01581249945,-0.009212499484,0.02804999985
19.51303786,4.618050098,0.46905002,-8.524950027,-0.02021249942,-0.009899999946,0.0362999998
19.53303786,4.618050098,0.5070000291,-8.544000626,-0.02309999987,-0.00742499996,0.04166249931
19.55303786,4.656000137,0.5070000291,-8.544000626,-0.0257124994,-0.003849999979,0.04083750024
19.57303786,4.618050098,0.5070000291,-8.524950027,-0.0257124994,-0.003849999979,0.04083750024
19.59303786,4.675050259,0.4500000179,-8.524950027,-0.03011249937,0.0001374999993,0.04702499881
19.61303786,4.599000454,0.487950027,-8.524950027,-0.02859999985,0.002887499984,0.04743750021
19.63303786,4.599000454,0.487950027,-8.544000626,-0.0244750008,0.002612499986,0.04001250118
19.65303786,4.618050098,0.5460000038,-8.583000183,-0.02048750035,0.00178749999,0.03355000168
19.67303786,4.618050098,0.5070000291,-8.56305027,-0.02089999989,-0.0006874999963,0.03547500074
19.69303786,4.636950016,0.487950027,-8.544000626,-0.02282499894,-0.0001374999993,0.03918749839
19.71303786,4.656000137,0.5070000291,-8.524950027,-0.0240624994,-0.000549999997,0.04152499884
19.73303786,4.618050098,0.5070000291,-8.56305027,-0.02103750035,-0.0006874999963,0.03355000168
19.75303786,4.618050098,0.5070000291,-8.56305027,-0.02034999989,0.002749999985,0.03107500076
19.77303786,4.599000454,0.5070000291,-8.50605011,-0.01787500083,0.002887499984,0.02639999986
19.79303786,4.599000454,0.487950027,-8.56305027,-0.0116875004,0.002337499987,0.01691249944
19.81303786,4.599000454,0.46905002,-8.56305027,-0.004262499977,0.001512499992,0.005224999972
19.83303786,4.618050098,0.46905002,-8.56305027,-0.001649999991,0.0002749999985,0.004674999975
19.85303786,4.56000042,0.46905002,-8.583000183,-0.009487500414,-0.005224999972,0.02254999988
19.87303786,4.618050098,0.46905002,-8.56305027,-0.0122375004,-0.005224999972,0.02804999985
19.89303786,4.636950016,0.487950027,-8.524950027,-0.01099999994,-0.004537499975,0.02777500078
19.91303786,4.618050098,0.46905002,-8.544000626,-0.01141249947,-0.003162499983,0.0309375003
19.93303786,4.56000042,0.5650500059,-8.583000183,-0.01429999992,-0.003162499983,0.03616249934
19.95303786,4.579950333,0.5070000291,-8.544000626,-0.02144999988,-0.002887499984,0.04455000162
19.97303786,4.599000454,0.5070000291,-8.56305027,-0.02818750031,-0.004262499977,0.05582499877
19.99303786,4.599000454,0.487950027,-8.56305027,-0.02832499892,-0.00549999997,0.0556874983
20.01303786,4.599000454,0.4309500158,-8.544000626,-0.02736249939,-0.006874999963,0.05348749831
20.03303786,4.618050098,0.487950027,-8.524950027,-0.02103750035,-0.007287499961,0.04193750024
20.05303786,4.618050098,0.487950027,-8.524950027,-0.02103750035,-0.007287499961,0.04193750024
20.07303786,4.656000137,0.487950027,-8.544000626,-0.004949999973,-0.005087499972,0.01374999993
20.09303786,4.675050259,0.5070000291,-8.56305027,0.01388750039,-0.001649999991,-0.01883750036
20.11303786,4.599000454,0.5260500312,-8.56305027,0.02172499895,-0.000549999997,-0.03286249936
20.13303786,4.636950016,0.487950027,-8.544000626,0.03327500075,0.0008249999955,-0.05733750015
20.15303786,4.618050098,0.487950027,-8.583000183,0.0489500016,0.002612499986,-0.08772499859
20.17303786,4.599000454,0.46905002,-8.56305027,0.05115000159,0.003437499981,-0.0923999995
20.19303786,4.579950333,0.46905002,-8.524950027,0.05266249925,0.005087499972,-0.09391249716
20.21303786,4.56000042,0.5070000291,-8.544000626,0.04221250117,0.003299999982,-0.07356250286
20.23303786,4.599000454,0.487950027,-8.487000465,0.03795000166,0.00178749999,-0.06572499871
20.25303786,4.579950333,0.487950027,-8.524950027,0.02584999986,-0.00192499999,-0.0434499979
20.27303786,4.599000454,0.5070000291,-8.524950027,-0.004812499974,-0.008524999954,0.01196249947
20.29303786,4.656000137,0.5070000291,-8.56305027,-0.01031249948,-0.006874999963,0.02213750035
20.31303786,4.656000137,0.487950027,-8.544000626,-0.01636249945,-0.005087499972,0.03244999796
20.33303786,4.599000454,0.5070000291,-8.524950027,-0.02736249939,-0.004262499977,0.04812499881
20.35303786,4.618050098,0.5070000291,-8.56305027,-0.03451250121,-0.003849999979,0.05953750014
20.37303786,4.599000454,0.487950027,-8.583000183,-0.05046249926,-0.003024999984,0.08923749626
20.39303786,4.599000454,0.5070000291,-8.544000626,-0.06215000153,-0.004399999976,0.1099999994
20.41303786,4.636950016,0.487950027,-8.56305027,-0.05816249922,-0.004537499975,0.1023000032
20.43303786,4.579950333,0.5260500312,-8.56305027,-0.04509999976,-0.004399999976,0.07782500237
20.45303786,4.599000454,0.5070000291,-8.544000626,-0.03396249935,-0.002062499989,0.05733750015
20.47303786,4.599000454,0.4500000179,-8.56305027,-0.007837500423,0.0006874999963,0.009074999951
20.49303786,4.636950016,0.5070000291,-8.524950027,0.02296249941,0.006324999966,-0.04784999788
20.51303786,4.599000454,0.487950027,-8.583000183,0.03189999983,0.01003750041,-0.06476250291
20.53303786,4.618050098,0.487950027,-8.544000626,0.03135000169,0.007562499959,-0.06311249733
20.55303786,4.656000137,0.5070000291,-8.524950027,0.0305249989,0.005362499971,-0.05981250107
20.57303786,4.636950016,0.5070000291,-8.524950027,0.02873750031,0.004537499975,-0.0554125011
20.59303786,4.599000454,0.5070000291,-8.583000183,0.02846249938,0.002474999987,-0.05115000159
20.61303786,4.618050098,0.487950027,-8.56305027,0.02914999984,0.001512499992,-0.04702499881
20.63303786,4.636950016,0.5070000291,-8.56305027,0.02584999986,0.0004124999978,-0.0420750007
20.65303786,4.618050098,0.487950027,-8.602050781,0.01993750036,-0.0002749999985,-0.03231250122
20.67303786,4.599000454,0.487950027,-8.524950027,0.01581249945,-0.001512499992,-0.02612499893
20.69303786,4.675050259,0.5070000291,-8.524950027,0.003162499983,-0.0006874999963,-0.00371249998
20.71303786,4.618050098,0.487950027,-8.544000626,-0.01471249945,0.0002749999985,0.02969999984
20.73303786,4.675050259,0.5070000291,-8.50605011,-0.01897500083,0.003024999984,0.03918749839
20.75303786,4.656000137,0.487950027,-8.524950027,-0.01594999991,0.00742499996,0.04001250118
20.77303786,4.599000454,0.5260500312,-8.583000183,-0.01498750038,0.01044999994,0.03753750026
20.79303786,4.618050098,0.487950027,-8.620950699,0.001099999994,0.008799999952,0.004124999978
20.81303786,4.599000454,0.46905002,-8.544000626,0.007699999958,0.007699999958,-0.008524999954
20.83303786,4.599000454,0.487950027,-8.602050781,0.01306249946,0.006049999967,-0.01842499897
20.85303786,4.618050098,0.4500000179,-8.524950027,0.01526249945,0.00371249998,-0.02323750034
20.87303786,4.599000454,0.46905002,-8.56305027,0.01718750037,0.005774999969,-0.02598750032
20.89303786,4.599000454,0.487950027,-8.544000626,0.01801249944,0.005912499968,-0.0246124994
20.91303786,4.579950333,0.5260500312,-8.524950027,0.007974999957,0.005637499969,-0.009762499481
20.93303786,4.636950016,0.5260500312,-8.544000626,0.005637499969,0.004949999973,-0.006324999966
20.95303786,4.656000137,0.487950027,-8.544000626,0.006187499966,0.003574999981,-0.01182499994
20.97303786,4.618050098,0.46905002,-8.544000626,0.004399999976,0.002337499987,-0.02021249942
20.99303786,4.618050098,0.46905002,-8.50605011,0.004537499975,0.001237499993,-0.02144999988
21.01303786,4.599000454,0.4309500158,-8.524950027,0.007012499962,-0.000549999997,-0.02007500082
21.03303786,4.618050098,0.487950027,-8.544000626,0.005912499968,0.001374999993,-0.01498750038
21.05303786,4.618050098,0.5260500312,-8.487000465,0.00549999997,0.003437499981,-0.01402499992
21.07303786,4.618050098,0.5070000291,-8.524950027,0.006049999967,0.00549999997,-0.01484999992
21.09303786,4.656000137,0.4500000179,-8.50605011,0.0008249999955,0.01031249948,-0.009212499484
21.11303786,4.636950016,0.487950027,-8.50605011,0.0,0.01086249948,-0.009899999946
21.13303786,4.675050259,0.5070000291,-8.524950027,-0.001099999994,0.0122375004,-0.01058750041
21.15303786,4.618050098,0.5070000291,-8.524950027,-0.0006874999963,0.01264999993,-0.00549999997
21.17303786,4.618050098,0.5260500312,-8.50605011,-0.0006874999963,0.01196249947,-0.004949999973
21.19303786,4.579950333,0.487950027,-8.544000626,-0.008937500417,0.008524999954,0.0116875004
21.21303786,4.579950333,0.46905002,-8.56305027,-0.01773750037,0.004949999973,0.02804999985
21.23303786,4.599000454,0.46905002,-8.583000183,-0.01787500083,0.004537499975,0.02887500077
21.25303786,4.618050098,0.487950027,-8.583000183,-0.02392499894,0.002749999985,0.03726249933
21.27303786,4.636950016,0.5070000291,-8.544000626,-0.03355000168,0.001649999991,0.05293750018
21.29303786,4.618050098,0.5070000291,-8.524950027,-0.03464999795,0.001512499992,0.05651250109
21.31303786,4.618050098,0.46905002,-8.524950027,-0.03299999982,0.0001374999993,0.05623750016
21.33303786,4.656000137,0.487950027,-8.544000626,-0.02199999988,-0.002749999985,0.04193750024
21.35303786,4.675050259,0.46905002,-8.524950027,-0.02103750035,-0.003574999981,0.04179999977
21.37303786,4.579950333,0.5460000038,-8.524950027,-0.01264999993,-0.00371249998,0.02873750031
21.39303786,4.656000137,0.5070000291,-8.50605011,0.01622499898,-0.00178749999,-0.0233750008
21.41303786,4.656000137,0.46905002,-8.487000465,0.02378750034,-0.000549999997,-0.03616249934
21.43303786,4.618050098,0.5070000291,-8.56305027,0.03602499887,0.001374999993,-0.05362499878
21.45303786,4.618050098,0.5070000291,-8.524950027,0.04839999974,0.003024999984,-0.07163749635
21.47303786,4.618050098,0.46905002,-8.602050781,0.05004999787,0.003162499983,-0.07644999772
21.49303786,4.618050098,0.5260500312,-8.56305027,0.0496375002,0.003024999984,-0.07864999771
21.51303786,4.599000454,0.487950027,-8.583000183,0.04221250117,-0.0,-0.06668750197
21.53303786,4.675050259,0.487950027,-8.544000626,0.03409999982,-0.004674999975,-0.05376249924
21.55303786,4.636950016,0.46905002,-8.544000626,0.02186249942,-0.004674999975,-0.03203750029
21.57303786,4.599000454,0.487950027,-8.56305027,0.01553750038,-0.006187499966,-0.02144999988
21.59303786,4.618050098,0.487950027,-8.544000626,-0.007149999961,-0.0116875004,0.01842499897
21.61303786,4.636950016,0.487950027,-8.583000183,-0.01704999991,-0.01553750038,0.03657500073
21.63303786,4.636950016,0.5260500312,-8.544000626,-0.01622499898,-0.01663750038,0.03478749841
21.65303786,4.636950016,0.5260500312,-8.620950699,-0.01154999994,-0.01539999992,0.0251624994
21.67303786,4.656000137,0.46905002,-8.56305027,-0.01251249947,-0.01457499992,0.02254999988
21.69303786,4.636950016,0.4500000179,-8.50605011,-0.01979999989,-0.01264999993,0.03203750029
21.71303786,4.579950333,0.46905002,-8.544000626,-0.02598750032,-0.01044999994,0.04564999789
21.73303786,4.579950333,0.4500000179,-8.544000626,-0.02901249938,-0.00838750042,0.05211250111
21.75303786,4.579950333,0.4500000179,-8.524950027,-0.02956249937,-0.006874999963,0.05403750017
21.77303786,4.618050098,0.4500000179,-8.56305027,-0.02488750033,-0.005362499971,0.05059999973
21.79303786,4.636950016,0.4500000179,-8.583000183,-0.01251249947,-0.004262499977,0.03189999983
21.81303786,4.599000454,0.46905002,-8.583000183,0.005912499968,-0.00178749999,-0.005774999969
21.83303786,4.599000454,0.5460000038,-8.56305027,0.01828750037,-0.0009624999948,-0.03011249937
21.85303786,4.675050259,0.487950027,-8.544000626,0.02048750035,0.0,-0.0362999998
21.87303786,4.636950016,0.487950027,-8.487000465,0.01347499993,0.001099999994,-0.03024999984
21.89303786,4.636950016,0.5260500312,-8.544000626,0.00549999997,0.002062499989,-0.01429999992
21.91303786,4.599000454,0.5070000291,-8.544000626,-0.002199999988,0.003987499978,0.00192499999
21.93303786,4.579950333,0.487950027,-8.56305027,-0.008249999955,0.006324999966,0.009212499484
21.95303786,4.618050098,0.487950027,-8.50605011,-0.01072499994,0.00371249998,0.01044999994
21.97303786,4.56000042,0.5070000291,-8.544000626,-0.006187499966,0.002749999985,-0.005087499972
21.99303786,4.636950016,0.487950027,-8.544000626,-0.001099999994,0.002612499986,-0.02804999985
22.01303786,4.618050098,0.5070000291,-8.524950027,0.002474999987,0.003024999984,-0.03767500073
22.03303786,4.618050098,0.4500000179,-8.524950027,0.00178749999,0.003024999984,-0.02749999985
22.05303786,4.618050098,0.4500000179,-8.524950027,0.00178749999,0.003024999984,-0.02749999985
22.07303786,4.579950333,0.46905002,-8.56305027,-0.002474999987,0.003849999979,-0.01209999993
22.09303786,4.618050098,0.487950027,-8.544000626,-0.01209999993,0.002062499989,0.01526249945
22.11303786,4.579950333,0.487950027,-8.524950027,-0.01017499994,0.001237499993,0.01512499992
22.13303786,4.636950016,0.487950027,-8.56305027,-0.003437499981,-0.003024999984,0.007149999961
22.15303786,4.599000454,0.46905002,-8.56305027,0.003024999984,-0.006187499966,0.0001374999993
22.17303786,4.656000137,0.5260500312,-8.56305027,0.006874999963,-0.009762499481,-0.005087499972
22.19303786,4.618050098,0.487950027,-8.56305027,0.009349999949,-0.007699999958,-0.009487500414
22.21303786,4.599000454,0.46905002,-8.524950027,0.02626249939,-0.002887499984,-0.03286249936
22.23303786,4.579950333,0.5070000291,-8.56305027,0.03341250122,-0.001237499993,-0.04331250116
22.25303786,4.540950298,0.487950027,-8.56305027,0.03464999795,-0.0009624999948,-0.04551250115
22.27303786,4.618050098,0.5260500312,-8.56305027,0.02186249942,-0.0004124999978,-0.0303875003
22.29303786,4.656000137,0.5460000038,-8.620950699,0.01979999989,-0.0001374999993,-0.02736249939
22.31303786,4.636950016,0.46905002,-8.544000626,0.01911249943,0.0001374999993,-0.03341250122
22.33303786,4.599000454,0.5070000291,-8.487000465,0.02804999985,0.006187499966,-0.06448750198
22.35303786,4.636950016,0.487950027,-8.544000626,0.03011249937,0.008249999955,-0.06902500242
22.37303786,4.636950016,0.46905002,-8.56305027,0.02901249938,0.01031249948,-0.06641250104
22.39303786,4.579950333,0.4500000179,-8.50605011,0.02241249941,0.01361249946,-0.04936249927
22.41303786,4.599000454,0.5070000291,-8.544000626,0.01979999989,0.01416249946,-0.0434499979
22.43303786,4.579950333,0.5070000291,-8.544000626,0.0122375004,0.01003750041,-0.02791249938
22.45303786,4.636950016,0.487950027,-8.583000183,-0.01003750041,0.004399999976,0.01457499992
22.47303786,4.540950298,0.46905002,-8.50605011,-0.01636249945,0.003299999982,0.02653750032
22.49303786,4.618050098,0.46905002,-8.544000626,-0.02144999988,0.001512499992,0.03616249934
22.51303786,4.618050098,0.487950027,-8.524950027,-0.006324999966,0.00178749999,0.01003750041
22.53303786,4.599000454,0.4309500158,-8.50605011,0.0,0.0,0.0
22.55303786,4.618050098,0.487950027,-8.56305027,0.01251249947,-0.00192499999,-0.009074999951
22.57303786,4.618050098,0.5070000291,-8.583000183,0.01072499994,-0.005362499971,-0.001099999994
22.59303786,4.636950016,0.46905002,-8.544000626,0.006599999964,-0.005362499971,0.004674999975
22.61303786,4.618050098,0.5260500312,-8.50605011,-0.005087499972,-0.006737499963,0.0244750008
22.63303786,4.618050098,0.487950027,-8.524950027,-0.007837500423,-0.008249999955,0.02791249938
22.65303786,4.636950016,0.5070000291,-8.544000626,-0.008799999952,-0.006874999963,0.02749999985
22.67303786,4.599000454,0.5070000291,-8.56305027,-0.005362499971,-0.004949999973,0.0181499999
22.69303786,4.56000042,0.5260500312,-8.544000626,-0.004812499974,-0.004674999975,0.01553750038
22.71303786,4.599000454,0.5070000291,-8.56305027,-0.00178749999,-0.003574999981,0.002749999985
22.73303786,4.579950333,0.5070000291,-8.524950027,0.008937500417,-0.002474999987,-0.02419999987
22.75303786,4.599000454,0.5260500312,-8.524950027,0.01154999994,-0.002337499987,-0.02859999985
22.77303786,4.636950016,0.46905002,-8.56305027,0.01099999994,-0.00192499999,-0.02928750031
22.79303786,4.618050098,0.487950027,-8.544000626,0.0122375004,-0.0002749999985,-0.03299999982
22.81303786,4.599000454,0.5260500312,-8.56305027,0.01306249946,0.0004124999978,-0.03313750029
22.83303786,4.599000454,0.46905002,-8.544000626,0.01182499994,0.003024999984,-0.03107500076
22.85303786,4.618050098,0.5260500312,-8.524950027,0.01086249948,0.004537499975,-0.0298375003
22.87303786,4.579950333,0.5070000291,-8.56305027,0.007699999958,0.004537499975,-0.02378750034
22.89303786,4.56000042,0.487950027,-8.56305027,-0.0008249999955,0.001374999993,-0.009624999948
22.91303786,4.599000454,0.46905002,-8.544000626,0.0,0.0,0.0
22.93303786,4.599000454,0.5460000038,-8.50605011,-0.004537499975,-0.0006874999963,-0.00178749999
22.95303786,4.599000454,0.5460000038,-8.524950027,0.0,0.0,0.0
22.97303786,4.618050098,0.487950027,-8.583000183,0.0,0.0,0.0
22.99303786,4.636950016,0.5070000291,-8.50605011,0.0,0.0,0.0
23.01303786,4.599000454,0.5070000291,-8.583000183,-0.01058750041,-0.002749999985,0.008524999954
23.03303786,4.618050098,0.487950027,-8.524950027,-0.01842499897,-0.004262499977,0.02543750033
23.05303786,4.618050098,0.5070000291,-8.524950027,-0.02268750034,-0.004812499974,0.03341250122
23.07303786,4.599000454,0.487950027,-8.544000626,-0.03973750025,-0.006324999966,0.06641250104
23.09303786,4.636950016,0.5070000291,-8.56305027,-0.04138749838,-0.007012499962,0.06984999776
23.11303786,4.579950333,0.46905002,-8.524950027,-0.04221250117,-0.00838750042,0.07012499869
23.13303786,4.579950333,0.487950027,-8.524950027,-0.04331250116,-0.01017499994,0.073012501
23.15303786,4.618050098,0.5070000291,-8.620950699,-0.0438624993,-0.01113750041,0.07493750006
23.17303786,4.636950016,0.487950027,-8.56305027,-0.04152499884,-0.0116875004,0.07273750007
23.19303786,4.56000042,0.5460000038,-8.620950699,-0.03712499887,-0.01196249947,0.0665500015
23.21303786,4.636950016,0.5260500312,-8.583000183,-0.03959999979,-0.01154999994,0.07095000148
23.23303786,4.599000454,0.487950027,-8.56305027,-0.0427624993,-0.008524999954,0.07727500051
23.25303786,4.579950333,0.487950027,-8.544000626,-0.02474999987,-0.002474999987,0.04509999976
23.27303786,4.540950298,0.5070000291,-8.524950027,-0.01718750037,-0.002612499986,0.03107500076
23.29303786,4.579950333,0.46905002,-8.544000626,-0.008524999954,-0.003024999984,0.01443750039
23.31303786,4.599000454,0.4500000179,-8.544000626,0.01154999994,-0.001374999993,-0.02144999988
23.33303786,4.618050098,0.5070000291,-8.544000626,0.01828750037,-0.001649999991,-0.03423750028
23.35303786,4.56000042,0.487950027,-8.583000183,0.02694999985,-0.001099999994,-0.05046249926
23.37303786,4.599000454,0.5070000291,-8.50605011,0.03822499886,0.003299999982,-0.07177499682
23.39303786,4.618050098,0.46905002,-8.50605011,0.04303750023,0.004124999978,-0.08057499677
23.41303786,4.599000454,0.5070000291,-8.56305027,0.04743750021,0.008662499487,-0.08910000324
23.43303786,4.579950333,0.5460000038,-8.544000626,0.04289999977,0.01044999994,-0.08030000329
23.45303786,4.579950333,0.5070000291,-8.544000626,0.04042499885,0.009074999951,-0.07479999959
23.47303786,4.599000454,0.46905002,-8.56305027,0.0356125012,0.007562499959,-0.0628374964
23.49303786,4.599000454,0.5260500312,-8.56305027,0.02653750032,0.002474999987,-0.04468749836
23.51303786,4.599000454,0.5070000291,-8.602050781,0.01856249943,0.002199999988,-0.03079999983
23.53303786,4.618050098,0.5070000291,-8.524950027,0.0,0.0,0.0
23.55303786,4.599000454,0.5260500312,-8.56305027,-0.01993750036,-0.001512499992,0.03987500072
23.57303786,4.636950016,0.487950027,-8.583000183,-0.02598750032,-0.0006874999963,0.0503249988
23.59303786,4.579950333,0.5260500312,-8.544000626,-0.0309375003,0.0006874999963,0.05898749828
23.61303786,4.599000454,0.5070000291,-8.56305027,-0.03368749842,-0.002199999988,0.06118749827
23.63303786,4.56000042,0.5070000291,-8.56305027,-0.03382499889,-0.002749999985,0.06173750013
23.65303786,4.579950333,0.46905002,-8.56305027,-0.02626249939,-0.004674999975,0.04661250114
23.67303786,4.579950333,0.5260500312,-8.524950027,-0.02144999988,-0.006599999964,0.03781250119
23.69303786,4.56000042,0.46905002,-8.56305027,-0.02062499896,-0.005087499972,0.03299999982
23.71303786,4.636950016,0.5070000291,-8.56305027,-0.02433750033,-0.004399999976,0.03891250119
23.73303786,4.599000454,0.487950027,-8.583000183,-0.03217500076,-0.003299999982,0.0503249988
23.75303786,4.599000454,0.5070000291,-8.583000183,-0.03451250121,-0.002887499984,0.05403750017
23.77303786,4.56000042,0.4500000179,-8.56305027,-0.02502499893,-0.001374999993,0.03643750027
23.79303786,4.618050098,0.5260500312,-8.544000626,-0.01196249947,-0.000549999997,0.01374999993
23.81303786,4.599000454,0.46905002,-8.56305027,0.0,0.0,0.0
23.83303786,4.618050098,0.487950027,-8.56305027,0.0,0.0,0.0
23.85303786,4.579950333,0.5070000291,-8.56305027,-0.0009624999948,-0.002887499984,-0.003849999979
23.87303786,4.599000454,0.5070000291,-8.56305027,-0.006462499965,-0.005637499969,0.006737499963
23.89303786,4.599000454,0.487950027,-8.583000183,-0.02639999986,-0.006324999966,0.04427500069
23.91303786,4.599000454,0.46905002,-8.583000183,-0.03066249937,-0.006187499966,0.05335000157
23.93303786,4.618050098,0.5070000291,-8.524950027,-0.02186249942,-0.005912499968,0.03863750026
23.95303786,4.618050098,0.5260500312,-8.524950027,-0.009074999951,-0.003987499978,0.0181499999
23.97303786,4.618050098,0.5460000038,-8.56305027,0.004949999973,-0.00371249998,-0.003162499983
23.99303786,4.599000454,0.5070000291,-8.544000626,0.01306249946,-0.00192499999,-0.0186999999
24.01303786,4.618050098,0.46905002,-8.56305027,0.008524999954,-0.0001374999993,-0.00838750042
24.03303786,4.56000042,0.487950027,-8.56305027,0.001512499992,-0.00178749999,0.01072499994
24.05303786,4.599000454,0.487950027,-8.56305027,-0.0008249999955,-0.003574999981,0.01787500083
24.07303786,4.599000454,0.487950027,-8.524950027,0.001099999994,-0.003299999982,0.01416249946
24.09303786,4.599000454,0.487950027,-8.56305027,0.003024999984,-0.002199999988,0.01498750038
24.11303786,4.56000042,0.46905002,-8.583000183,0.005637499969,-0.000549999997,0.0116875004
24.13303786,4.599000454,0.487950027,-8.602050781,0.01883750036,0.0009624999948,-0.009899999946
24.15303786,4.636950016,0.46905002,-8.524950027,0.02213750035,0.001237499993,-0.01856249943
24.17303786,4.579950333,0.5650500059,-8.583000183,0.02722499892,0.002474999987,-0.03286249936
24.19303786,4.618050098,0.5260500312,-8.524950027,0.03189999983,0.006737499963,-0.04716249928
24.21303786,4.579950333,0.5070000291,-8.524950027,0.03024999984,0.00742499996,-0.04537500069
24.23303786,4.599000454,0.5070000291,-8.583000183,0.0244750008,0.007837500423,-0.03643750027
24.25303786,4.579950333,0.487950027,-8.583000183,0.02089999989,0.005637499969,-0.03327500075
24.27303786,4.56000042,0.5260500312,-8.544000626,0.01856249943,0.005224999972,-0.02997500077
24.29303786,4.618050098,0.5260500312,-8.56305027,0.01471249945,0.004399999976,-0.02681249939
24.31303786,4.579950333,0.5460000038,-8.56305027,0.01003750041,0.00371249998,-0.02818750031
24.33303786,4.618050098,0.487950027,-8.544000626,0.01113750041,0.003849999979,-0.03464999795
24.35303786,4.636950016,0.5260500312,-8.524950027,0.01581249945,0.003299999982,-0.04399999976
24.37303786,4.599000454,0.487950027,-8.56305027,0.01594999991,0.004812499974,-0.0427624993
24.39303786,4.636950016,0.4500000179,-8.56305027,0.01979999989,0.005224999972,-0.0496375002
24.41303786,4.540950298,0.5260500312,-8.50605011,0.01636249945,0.003849999979,-0.04152499884
24.43303786,4.579950333,0.5460000038,-8.56305027,-0.0002749999985,0.0006874999963,-0.01292499993
24.45303786,4.618050098,0.46905002,-8.56305027,-0.0004124999978,-0.001237499993,-0.01374999993
24.47303786,4.656000137,0.5260500312,-8.524950027,-0.004399999976,-0.004674999975,-0.002612499986
24.49303786,4.579950333,0.5260500312,-8.56305027,-0.01127499994,-0.005637499969,0.01416249946
24.51303786,4.579950333,0.5070000291,-8.544000626,-0.009074999951,-0.004949999973,0.01141249947
24.53303786,4.599000454,0.5070000291,-8.544000626,-0.003162499983,-0.002749999985,0.002474999987
24.55303786,4.636950016,0.487950027,-8.544000626,0.0,0.0,0.0
24.57303786,4.618050098,0.46905002,-8.544000626,0.0,0.0,0.0
24.59303786,4.618050098,0.46905002,-8.56305027,-0.004537499975,-0.002749999985,0.0127875004
24.61303786,4.579950333,0.46905002,-8.524950027,-0.009624999948,-0.002749999985,0.01883750036
24.63303786,4.656000137,0.5070000291,-8.544000626,-0.01099999994,-0.002749999985,0.02117500082
24.65303786,4.599000454,0.5070000291,-8.56305027,-0.009762499481,-0.002062499989,0.01622499898
24.67303786,4.56000042,0.5260500312,-8.544000626,0.004949999973,0.000549999997,-0.01471249945
24.69303786,4.599000454,0.5070000291,-8.544000626,0.007287499961,0.002062499989,-0.01801249944
24.71303786,4.636950016,0.4500000179,-8.544000626,0.01154999994,0.002887499984,-0.02543750033
24.73303786,4.618050098,0.487950027,-8.544000626,0.01526249945,0.008524999954,-0.0298375003
24.75303786,4.579950333,0.5839500427,-8.583000183,0.01374999993,0.007699999958,-0.0257124994
24.77303786,4.599000454,0.5460000038,-8.544000626,0.01031249948,0.006049999967,-0.01952499896
24.79303786,4.636950016,0.487950027,-8.50605011,0.006049999967,0.006599999964,-0.01347499993
24.81303786,4.618050098,0.5070000291,-8.50605011,-0.000549999997,0.006187499966,-0.005774999969
24.83303786,4.579950333,0.5070000291,-8.524950027,0.001237499993,0.007974999957,-0.01237499993
24.85303786,4.56000042,0.4500000179,-8.544000626,0.002199999988,0.009762499481,-0.009624999948
24.87303786,4.599000454,0.487950027,-8.56305027,0.003299999982,0.007562499959,-0.008662499487
24.89303786,4.618050098,0.5070000291,-8.544000626,0.0116875004,0.00811249949,-0.01594999991
24.91303786,4.618050098,0.5070000291,-8.602050781,0.007149999961,0.006187499966,0.002474999987
24.93303786,4.636950016,0.5070000291,-8.524950027,-0.004537499975,0.004399999976,0.02309999987
24.95303786,4.618050098,0.5260500312,-8.544000626,-0.01154999994,0.004399999976,0.03148749843
24.97303786,4.618050098,0.5070000291,-8.544000626,-0.01113750041,0.004124999978,0.02681249939
24.99303786,4.656000137,0.5070000291,-8.524950027,-0.005774999969,0.003574999981,0.01388750039
25.01303786,4.618050098,0.487950027,-8.524950027,-0.001237499993,0.003574999981,0.007562499959
25.03303786,4.579950333,0.4500000179,-8.544000626,0.0,0.0,0.0
25.05303786,4.618050098,0.487950027,-8.56305027,0.0,0.0,0.0
25.07303786,4.579950333,0.487950027,-8.583000183,0.006462499965,-0.001512499992,-0.002062499989
25.09303786,4.618050098,0.46905002,-8.56305027,0.0116875004,-0.002337499987,-0.01209999993
25.11303786,4.636950016,0.5260500312,-8.56305027,0.01127499994,-0.001649999991,-0.01333750039
25.13303786,4.599000454,0.4500000179,-8.56305027,0.00838750042,-0.002612499986,-0.01264999993
25.15303786,4.618050098,0.46905002,-8.544000626,0.00742499996,-0.003574999981,-0.01553750038
25.17303786,4.618050098,0.487950027,-8.544000626,0.009487500414,-0.004262499977,-0.01718750037
25.19303786,4.579950333,0.5260500312,-8.50605011,0.01141249947,-0.007149999961,-0.01856249943
25.21303786,4.579950333,0.487950027,-8.583000183,0.01017499994,-0.007149999961,-0.01512499992
25.23303786,4.56000042,0.5070000291,-8.56305027,0.008937500417,-0.009762499481,-0.01058750041
25.25303786,4.618050098,0.5260500312,-8.544000626,-0.005224999972,-0.01264999993,0.01649999991
25.27303786,4.618050098,0.4500000179,-8.56305027,-0.01031249948,-0.01374999993,0.02681249939
25.29303786,4.636950016,0.46905002,-8.50605011,-0.0186999999,-0.01319999993,0.04303750023
25.31303786,4.636950016,0.5070000291,-8.544000626,-0.0246124994,-0.01141249947,0.05252499878
25.33303786,4.599000454,0.46905002,-8.56305027,-0.02557500079,-0.01058750041,0.05403750017
25.35303786,4.618050098,0.46905002,-8.544000626,-0.02914999984,-0.007699999958,0.0607750006
25.37303786,4.675050259,0.5070000291,-8.56305027,-0.03616249934,-0.003849999979,0.07727500051
25.39303786,4.618050098,0.487950027,-8.56305027,-0.03684999794,-0.002612499986,0.08002500236
25.41303786,4.599000454,0.487950027,-8.544000626,-0.03327500075,-0.0009624999948,0.073012501
25.43303786,4.56000042,0.4500000179,-8.524950027,-0.02722499892,0.002474999987,0.06132499874
25.45303786,4.503000259,0.46905002,-8.524950027,-0.02488750033,0.003987499978,0.05967500061
25.47303786,4.618050098,0.46905002,-8.544000626,-0.01801249944,0.004124999978,0.0485375002
25.49303786,4.636950016,0.5460000038,-8.544000626,-0.006324999966,0.005637499969,0.02639999986
25.51303786,4.618050098,0.5260500312,-8.56305027,0.005087499972,0.00838750042,-0.0002749999985
25.53303786,4.636950016,0.5070000291,-8.602050781,0.008937500417,0.009074999951,-0.01113750041
25.55303786,4.618050098,0.46905002,-8.544000626,0.008799999952,0.009487500414,-0.02131249942
25.57303786,4.56000042,0.46905002,-8.56305027,0.009074999951,0.009349999949,-0.02227500081
25.59303786,4.579950333,0.46905002,-8.56305027,0.008937500417,0.008799999952,-0.0240624994
25.61303786,4.56000042,0.46905002,-8.544000626,0.01182499994,0.003574999981,-0.03437500075
25.63303786,4.579950333,0.4500000179,-8.544000626,0.01306249946,0.000549999997,-0.03616249934
25.65303786,4.599000454,0.5070000291,-8.56305027,0.01443750039,-0.003162499983,-0.03616249934
25.67303786,4.636950016,0.5070000291,-8.524950027,0.01677500084,-0.005224999972,-0.04124999791
25.69303786,4.618050098,0.5070000291,-8.56305027,0.02007500082,-0.005637499969,-0.04991250113
25.71303786,4.636950016,0.487950027,-8.524950027,0.03121249937,-0.002337499987,-0.0743874982
25.73303786,4.579950333,0.487950027,-8.544000626,0.04179999977,0.001512499992,-0.08951249719
25.75303786,4.579950333,0.46905002,-8.583000183,0.0438624993,0.002612499986,-0.08978749812
25.77303786,4.618050098,0.5260500312,-8.544000626,0.04427500069,0.00371249998,-0.08758749813
25.79303786,4.599000454,0.5070000291,-8.544000626,0.04028749838,0.00178749999,-0.07782500237
25.81303786,4.599000454,0.5070000291,-8.583000183,0.04015000165,0.0008249999955,-0.07919999957
25.83303786,4.618050098,0.5260500312,-8.544000626,0.04138749838,-0.002474999987,-0.08249999583
25.85303786,4.636950016,0.5070000291,-8.56305027,0.03904999793,-0.004674999975,-0.07658749819
25.87303786,4.636950016,0.5070000291,-8.524950027,0.03189999983,-0.002749999985,-0.06366249919
25.89303786,4.656000137,0.5070000291,-8.56305027,0.02089999989,-0.00192499999,-0.04661250114
25.91303786,4.636950016,0.5070000291,-8.544000626,0.01567500085,-0.0004124999978,-0.03753750026
25.93303786,4.618050098,0.5070000291,-8.544000626,-0.01581249945,0.003574999981,0.02076249942
25.95303786,4.636950016,0.5260500312,-8.544000626,-0.04784999788,0.0006874999963,0.08277499676
25.97303786,4.618050098,0.46905002,-8.544000626,-0.06861250103,-0.003299999982,0.1226499975
25.99303786,4.579950333,0.5070000291,-8.524950027,-0.07562500238,-0.005774999969,0.1370874941
26.01303786,4.618050098,0.5260500312,-8.544000626,-0.07150000334,-0.006049999967,0.1297999918
26.03303786,4.599000454,0.5260500312,-8.583000183,-0.06049999967,-0.004674999975,0.1098624989
26.05303786,4.599000454,0.46905002,-8.544000626,-0.05211250111,-0.002062499989,0.09459999949
26.07303786,4.599000454,0.487950027,-8.56305027,-0.04042499885,0.002199999988,0.07397499681
26.09303786,4.636950016,0.5070000291,-8.56305027,-0.0298375003,0.006187499966,0.05472499877
26.11303786,4.618050098,0.46905002,-8.544000626,-0.01856249943,0.006737499963,0.03382499889
26.13303786,4.656000137,0.487950027,-8.544000626,-0.004124999978,0.004812499974,0.00742499996
26.15303786,4.618050098,0.5070000291,-8.544000626,0.009487500414,0.005362499971,-0.01773750037
26.17303786,4.636950016,0.5260500312,-8.602050781,0.03231250122,0.005774999969,-0.05967500061
26.19303786,4.618050098,0.46905002,-8.56305027,0.05279999971,0.006324999966,-0.09858749807
26.21303786,4.579950333,0.4500000179,-8.544000626,0.06008749828,0.005774999969,-0.1132999957
26.23303786,4.56000042,0.5070000291,-8.56305027,0.0567874983,0.003299999982,-0.107662499
26.25303786,4.599000454,0.487950027,-8.602050781,0.04468749836,0.0006874999963,-0.08359999955
26.27303786,4.579950333,0.5070000291,-8.524950027,0.02859999985,-0.0009624999948,-0.05293750018
26.29303786,4.599000454,0.5460000038,-8.524950027,0.008662499487,-0.002062499989,-0.01594999991
26.31303786,4.618050098,0.5460000038,-8.544000626,-0.01979999989,-0.004124999978,0.03506249934
26.33303786,4.618050098,0.5260500312,-8.544000626,-0.03176249936,-0.005362499971,0.05513750017
26.35303786,4.599000454,0.5070000291,-8.524950027,-0.03795000166,-0.006599999964,0.06063750014
26.37303786,4.618050098,0.5070000291,-8.56305027,-0.04702499881,-0.006324999966,0.07644999772
26.39303786,4.56000042,0.4500000179,-8.544000626,-0.05169999972,-0.006049999967,0.08552499861
26.41303786,4.579950333,0.46905002,-8.602050781,-0.06201250106,-0.007837500423,0.1079374999
26.43303786,4.540950298,0.46905002,-8.524950027,-0.06311249733,-0.0122375004,0.1152250022
26.45303786,4.618050098,0.5070000291,-8.524950027,-0.06132499874,-0.01209999993,0.1126125008
26.47303786,4.636950016,0.5070000291,-8.544000626,-0.05802499875,-0.009762499481,0.105187498
26.49303786,4.675050259,0.5070000291,-8.487000465,-0.04564999789,-0.005087499972,0.08249999583
26.51303786,4.636950016,0.5070000291,-8.487000465,-0.03973750025,-0.001237499993,0.07204999775
26.53303786,4.618050098,0.5070000291,-8.544000626,-0.02681249939,0.007287499961,0.04881250113
26.55303786,4.618050098,0.5260500312,-8.583000183,-0.01044999994,0.01182499994,0.02048750035
26.57303786,4.599000454,0.5260500312,-8.56305027,-0.002749999985,0.01182499994,0.006599999964
26.59303786,4.636950016,0.46905002,-8.544000626,0.009074999951,0.01251249947,-0.01306249946
26.61303786,4.56000042,0.5260500312,-8.544000626,0.01594999991,0.008937500417,-0.02598750032
26.63303786,4.618050098,0.487950027,-8.544000626,0.01773750037,0.007562499959,-0.02914999984
26.65303786,4.636950016,0.5070000291,-8.50605011,0.02433750033,0.005774999969,-0.04193750024
26.67303786,4.656000137,0.5070000291,-8.56305027,0.0303875003,0.01072499994,-0.05417500064
26.69303786,4.636950016,0.487950027,-8.583000183,0.02873750031,0.01402499992,-0.05197500065
26.71303786,4.618050098,0.5070000291,-8.544000626,0.02928750031,0.01746249944,-0.05417500064
26.73303786,4.618050098,0.46905002,-8.544000626,0.03932499886,0.01154999994,-0.07315000147
26.75303786,4.618050098,0.5070000291,-8.524950027,0.04179999977,0.01086249948,-0.07755000144
26.77303786,4.636950016,0.46905002,-8.56305027,0.0438624993,0.005774999969,-0.08126249909
26.79303786,4.636950016,0.4500000179,-8.583000183,0.03451250121,-0.001649999991,-0.06352499872
26.81303786,4.656000137,0.5070000291,-8.544000626,0.03148749843,-0.002337499987,-0.05706249923
26.83303786,4.656000137,0.5070000291,-8.524950027,0.02736249939,-0.0006874999963,-0.04702499881
26.85303786,4.656000137,0.5260500312,-8.524950027,0.02282499894,0.003849999979,-0.03478749841
26.87303786,4.618050098,0.487950027,-8.544000626,0.02089999989,0.005912499968,-0.03066249937
26.89303786,4.636950016,0.46905002,-8.544000626,0.01979999989,0.008249999955,-0.02901249938
26.91303786,4.618050098,0.5070000291,-8.56305027,0.02089999989,0.005087499972,-0.02969999984
26.93303786,4.599000454,0.46905002,-8.56305027,0.02034999989,0.004812499974,-0.02804999985
26.95303786,4.618050098,0.487950027,-8.487000465,0.01608750038,0.001374999993,-0.02021249942
26.97303786,4.579950333,0.5070000291,-8.56305027,0.007699999958,-0.0,-0.006049999967
26.99303786,4.618050098,0.5070000291,-8.524950027,0.0,0.0,0.0
27.01303786,4.636950016,0.5070000291,-8.56305027,-0.004262499977,-0.0008249999955,0.01484999992
27.03303786,4.618050098,0.5070000291,-8.50605011,-0.01141249947,0.0002749999985,0.02694999985
27.05303786,4.656000137,0.4500000179,-8.544000626,-0.00742499996,0.001099999994,0.0186999999
27.07303786,4.636950016,0.5260500312,-8.544000626,-0.006462499965,0.0008249999955,0.01649999991
27.09303786,4.579950333,0.5460000038,-8.524950027,-0.007837500423,-0.000549999997,0.01718750037
27.11303786,4.618050098,0.5260500312,-8.56305027,-0.007837500423,-0.00192499999,0.01484999992
27.13303786,4.656000137,0.487950027,-8.524950027,-0.006737499963,-0.003024999984,0.009487500414
27.15303786,4.618050098,0.46905002,-8.487000465,-0.005224999972,-0.001237499993,0.004399999976
27.17303786,4.599000454,0.46905002,-8.544000626,0.0,0.0,0.0
27.19303786,4.579950333,0.5260500312,-8.544000626,0.00742499996,0.003024999984,-0.02144999988
27.21303786,4.656000137,0.487950027,-8.544000626,0.01594999991,0.00549999997,-0.03657500073
27.23303786,4.656000137,0.5070000291,-8.56305027,0.01966249943,0.007562499959,-0.04248749837
27.25303786,4.579950333,0.5070000291,-8.524950027,0.02502499893,0.005362499971,-0.05087500066
27.27303786,4.618050098,0.5070000291,-8.524950027,0.02887500077,0.002337499987,-0.05719999969
27.29303786,4.675050259,0.487950027,-8.524950027,0.03024999984,0.000549999997,-0.05926249921
27.31303786,4.693950176,0.46905002,-8.544000626,0.02777500078,-0.0006874999963,-0.05376249924
27.33303786,4.618050098,0.5260500312,-8.50605011,0.02241249941,0.0002749999985,-0.0434499979
27.35303786,4.618050098,0.5070000291,-8.487000465,0.02048750035,0.002887499984,-0.03904999793
27.37303786,4.656000137,0.46905002,-8.56305027,0.02241249941,0.004399999976,-0.04069999978
27.39303786,4.656000137,0.46905002,-8.56305027,0.02378750034,0.003299999982,-0.04372499883
27.41303786,4.618050098,0.46905002,-8.544000626,0.01594999991,0.0009624999948,-0.02956249937
27.43303786,4.618050098,0.5260500312,-8.56305027,-0.00192499999,-0.003162499983,0.003299999982
27.45303786,4.599000454,0.487950027,-8.50605011,-0.004812499974,-0.004124999978,0.005774999969
27.47303786,4.618050098,0.5070000291,-8.544000626,-0.003849999979,-0.002612499986,-0.001374999993
27.49303786,4.618050098,0.5070000291,-8.524950027,0.005087499972,0.00178749999,-0.02584999986
27.51303786,4.656000137,0.5460000038,-8.56305027,0.008524999954,0.00371249998,-0.03341250122
27.53303786,4.675050259,0.487950027,-8.56305027,0.01182499994,0.006599999964,-0.03863750026
27.55303786,4.599000454,0.5070000291,-8.544000626,0.01182499994,0.004674999975,-0.03355000168
27.57303786,4.618050098,0.487950027,-8.487000465,0.01141249947,0.004537499975,-0.0316249989
27.59303786,4.636950016,0.5070000291,-8.524950027,0.005912499968,0.0009624999948,-0.01594999991
27.61303786,4.618050098,0.5070000291,-8.544000626,-0.01773750037,-0.004537499975,0.03011249937
27.63303786,4.618050098,0.487950027,-8.50605011,-0.02254999988,-0.004262499977,0.04015000165
27.65303786,4.599000454,0.487950027,-8.524950027,-0.0244750008,-0.003437499981,0.04496249929
27.67303786,4.618050098,0.487950027,-8.544000626,-0.02969999984,-0.002337499987,0.0549999997
27.69303786,4.636950016,0.487950027,-8.583000183,-0.03382499889,-0.002474999987,0.06324999779
27.71303786,4.675050259,0.5070000291,-8.544000626,-0.04179999977,-0.002887499984,0.07851249725
27.73303786,4.636950016,0.487950027,-8.524950027,-0.05953750014,-0.003024999984,0.1135749966
27.75303786,4.599000454,0.5460000038,-8.602050781,-0.06270000339,-0.003849999979,0.1207249984
27.77303786,4.618050098,0.487950027,-8.544000626,-0.06297499686,-0.006187499966,0.1227874979
27.79303786,4.618050098,0.5070000291,-8.544000626,-0.06393750012,-0.00549999997,0.1215500012
27.81303786,4.540950298,0.5260500312,-8.56305027,-0.0628374964,-0.004674999975,0.1186624989
27.83303786,4.599000454,0.5460000038,-8.56305027,-0.05733750015,-0.005362499971,0.1079374999
27.85303786,4.618050098,0.46905002,-8.56305027,-0.0427624993,-0.006049999967,0.08167500049
27.87303786,4.636950016,0.5260500312,-8.50605011,-0.03781250119,-0.006049999967,0.07273750007
27.89303786,4.618050098,0.5460000038,-8.583000183,-0.02791249938,-0.006324999966,0.05362499878
27.91303786,4.656000137,0.487950027,-8.544000626,-0.009487500414,-0.003574999981,0.01663750038
27.93303786,4.675050259,0.5070000291,-8.524950027,-0.005912499968,-0.002337499987,0.01017499994
27.95303786,4.599000454,0.5260500312,-8.544000626,-0.002337499987,-0.0009624999948,0.004124999978
27.97303786,4.618050098,0.4309500158,-8.524950027,0.002337499987,0.0009624999948,-0.004262499977
27.99303786,4.56000042,0.46905002,-8.56305027,0.005774999969,0.001374999993,-0.01044999994
28.01303786,4.618050098,0.4309500158,-8.602050781,0.01237499993,0.002474999987,-0.01911249943
28.03303786,4.599000454,0.46905002,-8.544000626,0.02199999988,0.001649999991,-0.03519999981
28.05303786,4.599000454,0.5460000038,-8.50605011,0.0303875003,0.0001374999993,-0.05128749833
28.07303786,4.599000454,0.5460000038,-8.544000626,0.02914999984,0.004124999978,-0.05169999972
28.09303786,4.599000454,0.5070000291,-8.50605011,0.02681249939,0.005087499972,-0.04839999974
28.11303786,4.636950016,0.487950027,-8.524950027,0.02158750035,0.006324999966,-0.04564999789
28.13303786,4.656000137,0.5070000291,-8.524950027,0.01993750036,0.00549999997,-0.04441250116
28.15303786,4.675050259,0.5260500312,-8.56305027,0.02062499896,0.005637499969,-0.04606249928
28.17303786,4.656000137,0.487950027,-8.602050781,0.0240624994,0.003574999981,-0.05279999971
28.19303786,4.636950016,0.5070000291,-8.544000626,0.02777500078,-0.0009624999948,-0.05637500063
28.21303786,4.599000454,0.487950027,-8.56305027,0.02969999984,-0.000549999997,-0.05871250108
28.23303786,4.579950333,0.5070000291,-8.50605011,0.03423750028,0.0008249999955,-0.06613750011
28.25303786,4.636950016,0.46905002,-8.544000626,0.03107500076,0.005912499968,-0.06063750014
28.27303786,4.599000454,0.5070000291,-8.50605011,0.02846249938,0.007012499962,-0.05513750017
28.29303786,4.579950333,0.5260500312,-8.56305027,0.02667500079,0.007012499962,-0.05156249925
28.31303786,4.636950016,0.487950027,-8.524950027,0.03299999982,0.007012499962,-0.06242499873
28.33303786,4.656000137,0.46905002,-8.524950027,0.03616249934,0.006737499963,-0.06806249917
28.35303786,4.656000137,0.487950027,-8.50605011,0.0380874984,0.006187499966,-0.07095000148
28.37303786,4.618050098,0.46905002,-8.524950027,0.03519999981,0.007287499961,-0.05623750016
28.39303786,4.656000137,0.487950027,-8.50605011,0.03341250122,0.006874999963,-0.04619999975
28.41303786,4.599000454,0.487950027,-8.544000626,0.02997500077,0.00549999997,-0.03423750028
28.43303786,4.579950333,0.5070000291,-8.56305027,0.01072499994,0.003574999981,-0.003987499978
28.45303786,4.599000454,0.5070000291,-8.524950027,0.002887499984,0.0008249999955,0.007974999957
28.47303786,4.618050098,0.487950027,-8.524950027,-0.01182499994,-0.005087499972,0.03203750029
28.49303786,4.618050098,0.487950027,-8.544000626,-0.02598750032,-0.01072499994,0.05335000157
28.51303786,4.618050098,0.46905002,-8.544000626,-0.02859999985,-0.01072499994,0.05527500063
28.53303786,4.618050098,0.5260500312,-8.524950027,-0.02956249937,-0.009074999951,0.05623750016
28.55303786,4.636950016,0.5070000291,-8.583000183,-0.0244750008,-0.006874999963,0.04578749835
28.57303786,4.599000454,0.487950027,-8.620950699,-0.02227500081,-0.006187499966,0.04179999977
28.59303786,4.656000137,0.46905002,-8.544000626,-0.01746249944,-0.007012499962,0.03313750029
28.61303786,4.636950016,0.5460000038,-8.544000626,-0.0116875004,-0.01154999994,0.02241249941
28.63303786,4.636950016,0.5260500312,-8.524950027,-0.008937500417,-0.0116875004,0.01691249944
28.65303786,4.636950016,0.46905002,-8.544000626,-0.001649999991,-0.009487500414,-0.001374999993
28.67303786,4.56000042,0.46905002,-8.524950027,0.006049999967,-0.005087499972,-0.01979999989
28.69303786,4.636950016,0.4309500158,-8.524950027,0.008937500417,-0.004124999978,-0.02392499894
28.71303786,4.599000454,0.4500000179,-8.487000465,0.009762499481,-0.001649999991,-0.0181499999
28.73303786,4.656000137,0.487950027,-8.544000626,0.01031249948,0.0,-0.006049999967
28.75303786,4.56000042,0.4500000179,-8.56305027,0.01182499994,-0.000549999997,-0.001649999991
28.77303786,4.579950333,0.5260500312,-8.56305027,0.01361249946,-0.001374999993,0.002199999988
28.79303786,4.618050098,0.5070000291,-8.56305027,0.009762499481,-0.004949999973,0.004674999975
28.81303786,4.636950016,0.487950027,-8.524950027,0.007837500423,-0.006049999967,0.004674999975
28.83303786,4.618050098,0.487950027,-8.544000626,-0.002749999985,-0.006049999967,0.02144999988
28.85303786,4.599000454,0.5070000291,-8.544000626,-0.02722499892,-0.006324999966,0.06215000153
28.87303786,4.579950333,0.5260500312,-8.56305027,-0.0305249989,-0.006187499966,0.06751249731
28.89303786,4.618050098,0.5260500312,-8.50605011,-0.03286249936,-0.006462499965,0.06984999776
28.91303786,4.618050098,0.5260500312,-8.56305027,-0.02681249939,-0.007012499962,0.05527500063
28.93303786,4.618050098,0.5070000291,-8.544000626,-0.02419999987,-0.007974999957,0.04908749834
28.95303786,4.599000454,0.487950027,-8.524950027,-0.0175999999,-0.008662499487,0.03203750029
28.97303786,4.656000137,0.46905002,-8.524950027,-0.01319999993,-0.007974999957,0.001374999993
28.99303786,4.675050259,0.487950027,-8.544000626,-0.01182499994,-0.006737499963,-0.002749999985
29.01303786,4.752000332,0.487950027,-8.56305027,-0.009899999946,-0.004124999978,-0.005362499971
29.03303786,4.732950211,0.46905002,-8.659049988,-0.01113750041,0.007562499959,0.01031249948
29.05303786,4.752000332,0.5070000291,-8.524950027,-0.01416249946,0.01471249945,0.01787500083
29.07303786,4.618050098,0.487950027,-8.467950821,-0.01416249946,0.01801249944,0.02089999989
29.09303786,4.540950298,0.5260500312,-8.487000465,-0.01017499994,0.01319999993,0.01333750039
29.11303786,4.503000259,0.5260500312,-8.487000465,-0.007974999957,0.01141249947,0.009624999948
29.13303786,4.522050381,0.46905002,-8.602050781,0.00371249998,0.007837500423,-0.01072499994
29.15303786,4.599000454,0.46905002,-8.56305027,0.01209999993,0.004399999976,-0.02543750033
29.17303786,4.56000042,0.5070000291,-8.544000626,0.02681249939,0.0004124999978,-0.05018749833
29.19303786,4.579950333,0.487950027,-8.44904995,0.0373999998,-0.0008249999955,-0.05912499875
29.21303786,4.579950333,0.487950027,-8.524950027,0.0369874984,-0.001099999994,-0.05761250108
29.23303786,4.636950016,0.487950027,-8.583000183,0.03602499887,0.000549999997,-0.05224999785
29.25303786,4.636950016,0.4500000179,-8.524950027,0.03533750027,-0.0009624999948,-0.05266249925
29.27303786,4.656000137,0.487950027,-8.50605011,0.03451250121,-0.002749999985,-0.05307500064
29.29303786,4.656000137,0.4500000179,-8.544000626,0.03011249937,-0.007699999958,-0.04881250113
29.31303786,4.618050098,0.5070000291,-8.50605011,0.02846249938,-0.01113750041,-0.04619999975
29.33303786,4.599000454,0.487950027,-8.56305027,0.02763750032,-0.009349999949,-0.04303750023
29.35303786,4.618050098,0.487950027,-8.620950699,0.02364999987,-0.005637499969,-0.02777500078
29.37303786,4.656000137,0.5460000038,-8.56305027,0.01471249945,-0.003574999981,-0.01237499993
29.39303786,4.656000137,0.5070000291,-8.524950027,0.01058750041,0.002337499987,-0.008662499487
29.41303786,4.636950016,0.487950027,-8.524950027,0.006462499965,0.01182499994,-0.003299999982
29.43303786,4.579950333,0.5260500312,-8.50605011,-0.003437499981,0.01058750041,0.006599999964
29.45303786,4.599000454,0.5070000291,-8.50605011,-0.01182499994,0.01058750041,0.0186999999
29.47303786,4.599000454,0.5070000291,-8.544000626,-0.03079999983,0.005224999972,0.0489500016
29.49303786,4.56000042,0.5260500312,-8.583000183,-0.04138749838,0.0006874999963,0.06448750198
29.51303786,4.618050098,0.487950027,-8.544000626,-0.04069999978,-0.002337499987,0.06352499872
29.53303786,4.618050098,0.5260500312,-8.583000183,-0.0380874984,-0.007287499961,0.05912499875
29.55303786,4.599000454,0.487950027,-8.544000626,-0.03506249934,-0.0127875004,0.04949999973
29.57303786,4.636950016,0.5260500312,-8.583000183,-0.0362999998,-0.01306249946,0.04826249927
29.59303786,4.618050098,0.487950027,-8.524950027,-0.04028749838,-0.01251249947,0.0485375002
29.61303786,4.618050098,0.5070000291,-8.524950027,-0.04179999977,-0.01072499994,0.04881250113
29.63303786,4.56000042,0.5070000291,-8.583000183,-0.03918749839,-0.01031249948,0.04578749835
29.65303786,4.618050098,0.5260500312,-8.544000626,-0.02928750031,-0.01058750041,0.03066249937
29.67303786,4.56000042,0.5260500312,-8.602050781,-0.01251249947,-0.01251249947,0.00838750042
29.69303786,4.599000454,0.487950027,-8.602050781,-0.0002749999985,-0.01196249947,-0.01209999993
29.71303786,4.579950333,0.5070000291,-8.583000183,0.02887500077,-0.01196249947,-0.06366249919
29.73303786,4.599000454,0.46905002,-8.602050781,0.04551250115,-0.008799999952,-0.09033749998
29.75303786,4.56000042,0.487950027,-8.544000626,0.04661250114,-0.006874999963,-0.09184999764
29.77303786,4.618050098,0.487950027,-8.524950027,0.04812499881,-0.004674999975,-0.09391249716
29.79303786,4.579950333,0.487950027,-8.524950027,0.04771250114,-0.003574999981,-0.09184999764
29.81303786,4.599000454,0.5460000038,-8.56305027,0.04839999974,-0.003024999984,-0.09267500043
29.83303786,4.579950333,0.5070000291,-8.56305027,0.04977500066,-0.002199999988,-0.09459999949
29.85303786,4.618050098,0.5070000291,-8.544000626,0.05046249926,-0.003574999981,-0.08758749813
29.87303786,4.599000454,0.46905002,-8.583000183,0.0489500016,-0.00371249998,-0.08401250094
29.89303786,4.579950333,0.46905002,-8.583000183,0.04358749837,-0.002199999988,-0.0683375001
29.91303786,4.599000454,0.5070000291,-8.583000183,0.02736249939,-0.002199999988,-0.0309375003
29.93303786,4.540950298,0.487950027,-8.56305027,0.01828750037,-0.002062499989,-0.01677500084
29.95303786,4.579950333,0.487950027,-8.583000183,0.003024999984,-0.0008249999955,0.003849999979
29.97303786,4.579950333,0.5070000291,-8.544000626,-0.0251624994,-0.002337499987,0.05706249923
29.99303786,4.540950298,0.46905002,-8.583000183,-0.0303875003,-0.003299999982,0.06558749825
30.01303786,4.599000454,0.5070000291,-8.544000626,-0.03547500074,-0.004537499975,0.073012501
30.03303786,4.56000042,0.487950027,-8.583000183,-0.03464999795,-0.005087499972,0.06710000336
30.05303786,4.599000454,0.487950027,-8.620950699,-0.03258749843,-0.004949999973,0.06270000339
30.07303786,4.599000454,0.5460000038,-8.583000183,-0.02859999985,-0.005087499972,0.05664999783
30.09303786,4.579950333,0.5070000291,-8.583000183,-0.02832499892,-0.003024999984,0.04977500066
30.11303786,4.618050098,0.5070000291,-8.524950027,-0.02859999985,-0.002887499984,0.04688749835
30.13303786,4.618050098,0.5070000291,-8.602050781,-0.02832499892,-0.002062499989,0.03987500072
30.15303786,4.599000454,0.5460000038,-8.524950027,-0.02034999989,0.001649999991,0.01058750041
30.17303786,4.618050098,0.46905002,-8.56305027,-0.01361249946,0.002337499987,0.001374999993
30.19303786,4.579950333,0.487950027,-8.56305027,-0.001374999993,0.006874999963,-0.01553750038
30.21303786,4.599000454,0.46905002,-8.620950699,0.006874999963,0.006874999963,-0.02942499891
30.23303786,4.56000042,0.46905002,-8.56305027,0.02557500079,0.007699999958,-0.05926249921
30.25303786,4.579950333,0.5070000291,-8.56305027,0.03602499887,0.007012499962,-0.06984999776
30.27303786,4.599000454,0.5260500312,-8.56305027,0.03547500074,0.006324999966,-0.0679249987
30.29303786,4.618050098,0.5070000291,-8.620950699,0.03492499888,0.004124999978,-0.06710000336
30.31303786,4.656000137,0.5460000038,-8.50605011,0.04124999791,0.004399999976,-0.07864999771
30.33303786,4.618050098,0.5460000038,-8.544000626,0.04372499883,0.005087499972,-0.08208750188
30.35303786,4.579950333,0.5260500312,-8.583000183,0.04606249928,0.005774999969,-0.08387500048
30.37303786,4.56000042,0.5070000291,-8.583000183,0.0367125012,0.003299999982,-0.06393750012
30.39303786,4.599000454,0.5260500312,-8.56305027,0.03011249937,0.00192499999,-0.05224999785
30.41303786,4.599000454,0.5460000038,-8.620950699,0.02103750035,-0.002062499989,-0.0362999998
30.43303786,4.56000042,0.5260500312,-8.56305027,-0.003437499981,-0.008524999954,0.007562499959
30.45303786,4.599000454,0.5070000291,-8.50605011,-0.01347499993,-0.007837500423,0.02529999986
30.47303786,4.579950333,0.46905002,-8.56305027,-0.02626249939,-0.007149999961,0.04496249929
30.49303786,4.599000454,0.5070000291,-8.56305027,-0.02268750034,-0.001512499992,0.03258749843
30.51303786,4.599000454,0.5260500312,-8.56305027,-0.01979999989,0.001512499992,0.02749999985
30.53303786,4.579950333,0.5260500312,-8.544000626,-0.01292499993,0.005087499972,0.01539999992
30.55303786,4.599000454,0.487950027,-8.583000183,-0.006874999963,0.003162499983,0.006187499966
30.57303786,4.56000042,0.5260500312,-8.544000626,-0.009212499484,0.002612499986,0.01113750041
30.59303786,4.599000454,0.5070000291,-8.524950027,-0.02378750034,-0.0009624999948,0.03946249932
30.61303786,4.56000042,0.487950027,-8.56305027,-0.03684999794,-0.004812499974,0.0679249987
30.63303786,4.579950333,0.5260500312,-8.56305027,-0.03272499889,-0.003987499978,0.06159999967
30.65303786,4.579950333,0.487950027,-8.583000183,-0.02227500081,-0.003024999984,0.04331250116
30.67303786,4.599000454,0.487950027,-8.544000626,-0.004674999975,-0.0004124999978,0.009899999946
30.69303786,4.618050098,0.5260500312,-8.583000183,0.00371249998,0.001237499993,-0.005637499969
30.71303786,4.579950333,0.5260500312,-8.544000626,0.003437499981,0.00178749999,-0.005774999969
30.73303786,4.599000454,0.5260500312,-8.602050781,0.0,0.0,0.0
30.75303786,4.599000454,0.5070000291,-8.544000626,0.0,0.0,0.0
30.77303786,4.599000454,0.5650500059,-8.524950027,-0.000549999997,-0.002612499986,0.004124999978
30.79303786,4.618050098,0.5460000038,-8.544000626,-0.00811249949,-0.003849999979,0.01594999991
30.81303786,4.618050098,0.5260500312,-8.56305027,-0.01237499993,-0.003849999979,0.02254999988
30.83303786,4.656000137,0.5070000291,-8.583000183,-0.02131249942,-0.003437499981,0.03203750029
30.85303786,4.618050098,0.46905002,-8.544000626,-0.0303875003,0.001512499992,0.04702499881
30.87303786,4.599000454,0.487950027,-8.544000626,-0.03272499889,0.003849999979,0.05376249924
