"Time (s)","Acceleration x (m/s^2)","Acceleration y (m/s^2)","Acceleration z (m/s^2)"
1.664923600E-2,-1.968000054E0,3.744000196E0,8.344050407E0
4.079823000E-2,-1.201950073E0,3.609000206E0,8.899950027E0
5.679823200E-2,-1.126049995E0,3.436950207E0,8.956950188E0
7.290067000E-2,-1.087950110E0,3.091950178E0,8.554950714E0
9.290067000E-2,-9.340500236E-1,2.671050072E0,8.344050407E0
1.129006700E-1,-9.340500236E-1,2.671050072E0,8.344050407E0
1.329006700E-1,-9.340500236E-1,2.671050072E0,8.344050407E0
1.529006700E-1,-9.540000558E-1,2.058000088E0,8.095050812E0
1.729006700E-1,-9.540000558E-1,2.058000088E0,8.095050812E0
1.929006700E-1,1.075049996E0,1.254000068E0,8.670000076E0
2.129006700E-1,1.075049996E0,1.254000068E0,8.670000076E0
2.329006700E-1,1.180500090E-1,1.291950107E0,9.666000366E0
2.529006700E-1,1.180500090E-1,1.291950107E0,9.666000366E0
2.729006700E-1,1.180500090E-1,1.291950107E0,9.666000366E0
2.929006700E-1,2.148000002E0,-5.830500126E-1,1.004805088E1
3.129006700E-1,2.148000002E0,-5.830500126E-1,1.004805088E1
3.329006700E-1,2.148000002E0,-5.830500126E-1,1.004805088E1
3.529006700E-1,2.148000002E0,-5.830500126E-1,1.004805088E1
3.729006700E-1,2.148000002E0,-5.830500126E-1,1.004805088E1
3.929006700E-1,6.730500460E-1,-1.387050033E0,7.942050457E0
4.129006700E-1,6.730500460E-1,-1.387050033E0,7.942050457E0
4.329006700E-1,9.990000725E-1,-2.019000053E0,8.171999931E0
4.529006700E-1,9.990000725E-1,-2.019000053E0,8.171999931E0
4.729006700E-1,9.990000725E-1,-2.019000053E0,8.171999931E0
4.929006700E-1,9.990000725E-1,-2.019000053E0,8.171999931E0
5.129006700E-1,9.990000725E-1,-2.019000053E0,8.171999931E0
5.329006700E-1,4.240500331E-1,-1.770000100E0,6.372000217E0
5.529006700E-1,4.240500331E-1,-1.770000100E0,6.372000217E0
5.729006700E-1,2.434950113E0,-1.560000062E0,5.911950111E0
5.929006700E-1,2.434950113E0,-1.560000062E0,5.911950111E0
6.129006700E-1,2.434950113E0,-1.560000062E0,5.911950111E0
6.329006700E-1,3.334950209E0,-3.073050261E0,8.134050369E0
6.529006700E-1,3.334950209E0,-3.073050261E0,8.134050369E0
6.729006700E-1,5.116050243E0,-4.642950058E0,9.913950920E0
6.929006700E-1,5.116050243E0,-4.642950058E0,9.913950920E0
7.129006700E-1,5.116050243E0,-4.642950058E0,9.913950920E0
7.329006700E-1,5.116050243E0,-4.642950058E0,9.913950920E0
7.529006700E-1,5.116050243E0,-4.642950058E0,9.913950920E0
7.729006700E-1,7.701000214E0,-5.848950386E0,1.209705067E1
7.929006700E-1,7.701000214E0,-5.848950386E0,1.209705067E1
8.129006700E-1,7.701000214E0,-5.848950386E0,1.209705067E1
8.329006700E-1,7.701000214E0,-5.848950386E0,1.209705067E1
8.529006700E-1,7.701000214E0,-5.848950386E0,1.209705067E1
8.729006700E-1,1.177995014E1,-3.550950050E0,7.731000423E0
8.929006700E-1,1.177995014E1,-3.550950050E0,7.731000423E0
9.129006700E-1,1.177995014E1,-3.550950050E0,7.731000423E0
9.329006700E-1,1.177995014E1,-3.550950050E0,7.731000423E0
9.529006700E-1,1.177995014E1,-3.550950050E0,7.731000423E0
9.729006700E-1,7.873050213E0,-1.003950000E0,3.403950214E0
9.929006700E-1,7.873050213E0,-1.003950000E0,3.403950214E0
1.012900670E0,6.685950279E0,-1.195950031E0,3.921000242E0
1.032900670E0,6.685950279E0,-1.195950031E0,3.921000242E0
1.052900670E0,6.685950279E0,-1.195950031E0,3.921000242E0
1.072900670E0,6.685950279E0,-1.195950031E0,3.921000242E0
1.092900670E0,6.685950279E0,-1.195950031E0,3.921000242E0
1.112900670E0,8.601000786E0,-2.287050009E0,2.676000118E0
1.132900670E0,8.601000786E0,-2.287050009E0,2.676000118E0
1.152900670E0,8.601000786E0,-2.287050009E0,2.676000118E0
1.172900670E0,8.601000786E0,-2.287050009E0,2.676000118E0
1.192900670E0,8.601000786E0,-2.287050009E0,2.676000118E0
1.212900670E0,1.172205067E1,-6.787050247E0,4.017000198E0
1.232900670E0,1.172205067E1,-6.787050247E0,4.017000198E0
1.252900670E0,8.256000519E0,-1.013895035E1,1.162950039E0
1.272900670E0,8.256000519E0,-1.013895035E1,1.162950039E0
1.292900670E0,8.256000519E0,-1.013895035E1,1.162950039E0
1.312900670E0,8.256000519E0,-1.013895035E1,1.162950039E0
1.332900670E0,8.256000519E0,-1.013895035E1,1.162950039E0
1.352900670E0,6.514050484E0,-4.126049995E0,7.990500331E-1
1.372900670E0,6.514050484E0,-4.126049995E0,7.990500331E-1
1.392900670E0,6.514050484E0,-4.126049995E0,7.990500331E-1
1.412900670E0,6.514050484E0,-4.126049995E0,7.990500331E-1
1.432900670E0,6.514050484E0,-4.126049995E0,7.990500331E-1
1.452900670E0,6.054000378E0,-4.852950096E0,4.740000367E-1
1.472900670E0,6.054000378E0,-4.852950096E0,4.740000367E-1
1.492900670E0,7.663050175E0,-8.779050827E0,1.585050106E0
1.512900670E0,7.663050175E0,-8.779050827E0,1.585050106E0
1.532900670E0,7.663050175E0,-8.779050827E0,1.585050106E0
1.552900670E0,7.663050175E0,-8.779050827E0,1.585050106E0
1.572900670E0,7.663050175E0,-8.779050827E0,1.585050106E0
1.592900670E0,2.836950064E0,-3.877050161E0,-2.244000196E0
1.612900670E0,2.836950064E0,-3.877050161E0,-2.244000196E0
1.632900670E0,6.540000439E-1,-4.201950073E0,1.162950039E0
1.632900670E0,6.540000439E-1,-4.201950073E0,1.162950039E0
1.672900670E0,6.540000439E-1,-4.201950073E0,1.162950039E0
1.692900670E0,-6.469500065E-1,-1.320195103E1,6.649500132E-1
1.712900670E0,-6.469500065E-1,-1.320195103E1,6.649500132E-1
1.732900670E0,-6.469500065E-1,-1.320195103E1,6.649500132E-1
1.752900670E0,-6.469500065E-1,-1.320195103E1,6.649500132E-1
1.772900670E0,-6.469500065E-1,-1.320195103E1,6.649500132E-1
1.792900670E0,-6.469500065E-1,-1.320195103E1,6.649500132E-1
1.812900670E0,-6.469500065E-1,-1.320195103E1,6.649500132E-1
1.832900670E0,-7.240500450E-1,-3.858000278E0,3.019500077E-1
1.852900670E0,-7.240500450E-1,-3.858000278E0,3.019500077E-1
1.872900670E0,-7.240500450E-1,-3.858000278E0,3.019500077E-1
1.892900670E0,-7.240500450E-1,-3.858000278E0,3.019500077E-1
1.912900670E0,-7.240500450E-1,-3.858000278E0,3.019500077E-1
1.932900670E0,-7.240500450E-1,-3.858000278E0,3.019500077E-1
1.952900670E0,-7.240500450E-1,-3.858000278E0,3.019500077E-1
1.972900670E0,2.032950163E0,-9.009000778E0,1.336050034E0
1.992900670E0,2.032950163E0,-9.009000778E0,1.336050034E0
2.012900670E0,2.032950163E0,-9.009000778E0,1.336050034E0
2.032900670E0,8.070000410E-1,-1.015800095E1,-1.380000114E-1
2.052900670E0,8.070000410E-1,-1.015800095E1,-1.380000114E-1
2.072900670E0,8.070000410E-1,-9.622050285E0,-7.890000343E-1
2.092900670E0,8.070000410E-1,-9.622050285E0,-7.890000343E-1
2.112900670E0,8.070000410E-1,-9.622050285E0,-7.890000343E-1
2.132900670E0,8.070000410E-1,-9.622050285E0,-7.890000343E-1
2.152900670E0,8.070000410E-1,-9.622050285E0,-7.890000343E-1
2.172900670E0,2.893950224E0,-1.025295067E1,-1.038000107E0
2.192900670E0,2.893950224E0,-1.025295067E1,-1.038000107E0
2.212900670E0,2.893950224E0,-1.025295067E1,-1.038000107E0
2.232900670E0,2.893950224E0,-1.025295067E1,-1.038000107E0
2.252900670E0,2.893950224E0,-1.025295067E1,-1.038000107E0
2.272900670E0,3.565050125E0,-7.687050343E0,1.795050144E0
2.292900670E0,3.565050125E0,-7.687050343E0,1.795050144E0
2.312900670E0,6.246000290E0,-1.023405075E1,-1.095000029E0
2.332900670E0,6.246000290E0,-1.023405075E1,-1.095000029E0
2.352900670E0,6.246000290E0,-1.023405075E1,-1.095000029E0
2.372900670E0,6.246000290E0,-1.023405075E1,-1.095000029E0
2.392900670E0,6.246000290E0,-1.023405075E1,-1.095000029E0
2.412900670E0,4.197000027E0,-8.740950584E0,1.411950111E0
2.432900670E0,4.197000027E0,-8.740950584E0,1.411950111E0
2.452900670E0,5.001000404E0,-7.801950455E0,-1.516950130E0
2.472900670E0,5.001000404E0,-7.801950455E0,-1.516950130E0
2.492900670E0,5.001000404E0,-7.801950455E0,-1.516950130E0
2.512900670E0,5.805000305E0,-7.552950382E0,-1.228950024E0
2.532900670E0,5.805000305E0,-7.552950382E0,-1.228950024E0
2.552900670E0,5.805000305E0,-7.552950382E0,-1.228950024E0
2.572900670E0,5.805000305E0,-7.552950382E0,-1.228950024E0
2.592900670E0,5.805000305E0,-7.552950382E0,-1.228950024E0
2.612900670E0,5.805000305E0,-7.552950382E0,-1.228950024E0
2.632900670E0,5.805000305E0,-7.552950382E0,-1.228950024E0
2.652900670E0,6.187950134E0,-5.007000446E0,-2.397000074E0
2.672900670E0,6.187950134E0,-5.007000446E0,-2.397000074E0
2.692900670E0,1.277505016E1,-8.434050560E0,-2.091000080E0
2.692900670E0,1.277505016E1,-8.434050560E0,-2.091000080E0
2.732900670E0,1.277505016E1,-8.434050560E0,-2.091000080E0
2.752900670E0,2.779950142E0,-5.275050163E0,2.082000017E0
2.772900670E0,2.779950142E0,-5.275050163E0,2.082000017E0
2.792900670E0,-1.068000078E0,-6.711000443E0,-1.879950047E0
2.812900670E0,-1.068000078E0,-6.711000443E0,-1.879950047E0
2.832900670E0,-1.068000078E0,-6.711000443E0,-1.879950047E0
2.852900670E0,-1.068000078E0,-6.711000443E0,-1.879950047E0
2.872900670E0,-1.068000078E0,-6.711000443E0,-1.879950047E0
2.892900670E0,1.342950106E0,-9.046950340E0,2.523000002E0
2.912900670E0,1.342950106E0,-9.046950340E0,2.523000002E0
2.932900670E0,1.342950106E0,-9.046950340E0,2.523000002E0
2.952900670E0,1.342950106E0,-9.046950340E0,2.523000002E0
2.972900670E0,1.342950106E0,-9.046950340E0,2.523000002E0
2.992900670E0,3.450000048E0,-1.538505077E1,4.495050430E0
3.012900670E0,3.450000048E0,-1.538505077E1,4.495050430E0
3.032900670E0,1.308195019E1,-2.555400085E1,-4.102050304E0
3.052900670E0,1.308195019E1,-2.555400085E1,-4.102050304E0
3.072900670E0,1.308195019E1,-2.555400085E1,-4.102050304E0
3.092900670E0,1.114800072E1,-1.159395027E1,-8.460000157E-1
3.112900670E0,1.114800072E1,-1.159395027E1,-8.460000157E-1
3.132900670E0,9.252000809E0,-5.640000105E-1,-7.890000343E-1
3.152900670E0,9.252000809E0,-5.640000105E-1,-7.890000343E-1
3.172900670E0,9.252000809E0,-5.640000105E-1,-7.890000343E-1
3.192900670E0,9.252000809E0,-5.640000105E-1,-7.890000343E-1
3.212900670E0,9.252000809E0,-5.640000105E-1,-7.890000343E-1
3.232900670E0,6.954000473E0,4.879500270E-1,3.958950281E0
3.252900670E0,6.954000473E0,4.879500270E-1,3.958950281E0
3.272900670E0,6.954000473E0,4.879500270E-1,3.958950281E0
3.292900670E0,6.954000473E0,4.879500270E-1,3.958950281E0
3.312900670E0,6.954000473E0,4.879500270E-1,3.958950281E0
3.332900670E0,1.369500065E1,-3.907305145E1,1.349505043E1
3.352900670E0,1.369500065E1,-3.907305145E1,1.349505043E1
3.372900670E0,-8.959500194E-1,-1.724295044E1,1.009950042E0
3.392900670E0,-8.959500194E-1,-1.724295044E1,1.009950042E0
3.412900670E0,-8.959500194E-1,-1.724295044E1,1.009950042E0
3.432900670E0,-8.959500194E-1,-1.724295044E1,1.009950042E0
3.452900670E0,-8.959500194E-1,-1.724295044E1,1.009950042E0
3.472900670E0,-1.930050135E0,-3.321000099E0,3.078000069E0
3.492900670E0,-1.930050135E0,-3.321000099E0,3.078000069E0
3.512900670E0,-9.150000215E-1,6.705000252E-2,4.954950333E0
3.532900670E0,-9.150000215E-1,6.705000252E-2,4.954950333E0
3.552900670E0,-9.150000215E-1,6.705000252E-2,4.954950333E0
3.572900670E0,-9.150000215E-1,6.705000252E-2,4.954950333E0
3.592900670E0,-9.150000215E-1,6.705000252E-2,4.954950333E0
3.612900670E0,-9.150000215E-1,6.705000252E-2,4.954950333E0
3.632900670E0,-9.150000215E-1,6.705000252E-2,4.954950333E0
3.652900670E0,-9.150000215E-1,6.705000252E-2,4.954950333E0
3.672900670E0,-9.150000215E-1,6.705000252E-2,4.954950333E0
3.692900670E0,-9.150000215E-1,6.705000252E-2,4.954950333E0
3.712900670E0,-2.293950081E0,-2.455800056E1,4.246050358E0
3.732900670E0,-2.293950081E0,-2.455800056E1,4.246050358E0
3.752900670E0,8.409000397E0,-2.478795052E1,-5.538000107E0
3.772900670E0,8.409000397E0,-2.478795052E1,-5.538000107E0
3.792900670E0,8.409000397E0,-2.478795052E1,-5.538000107E0
3.812900670E0,1.652895164E1,-3.379050255E0,8.785050392E0
3.832900670E0,1.652895164E1,-3.379050255E0,8.785050392E0
3.852900670E0,1.685400009E1,6.634950161E0,-4.638000011E0
3.872900670E0,1.685400009E1,6.634950161E0,-4.638000011E0
3.892900670E0,1.685400009E1,6.634950161E0,-4.638000011E0
3.912900670E0,9.846000671E0,-3.934050083E0,-8.275950432E0
3.932900670E0,9.846000671E0,-3.934050083E0,-8.275950432E0
3.952900670E0,9.846000671E0,-3.934050083E0,-8.275950432E0
3.972900670E0,9.846000671E0,-3.934050083E0,-8.275950432E0
3.992900670E0,9.846000671E0,-3.934050083E0,-8.275950432E0
4.012900670E0,9.846000671E0,-3.934050083E0,-8.275950432E0
4.032900670E0,9.846000671E0,-3.934050083E0,-8.275950432E0
4.052900670E0,-2.217000008E0,-1.643895149E1,2.044049978E0
4.072900670E0,-2.217000008E0,-1.643895149E1,2.044049978E0
4.092900670E0,-2.313000202E0,1.031205082E1,-1.459050059E0
4.112900670E0,-2.313000202E0,1.031205082E1,-1.459050059E0
4.132900670E0,-2.313000202E0,1.031205082E1,-1.459050059E0
4.152900670E0,2.329500169E-1,4.816050053E0,6.754950523E0
4.172900670E0,2.329500169E-1,4.816050053E0,6.754950523E0
4.192900670E0,-5.899500251E-1,-3.360000134E0,6.850500107E-1
4.212900670E0,-5.899500251E-1,-3.360000134E0,6.850500107E-1
4.232900670E0,-5.899500251E-1,-3.360000134E0,6.850500107E-1
4.252900670E0,-5.899500251E-1,-3.360000134E0,6.850500107E-1
4.272900670E0,-5.899500251E-1,-3.360000134E0,6.850500107E-1
4.292900670E0,-1.223205090E1,-2.928795052E1,2.829000235E0
4.312900670E0,-1.223205090E1,-2.928795052E1,2.829000235E0
4.332900670E0,-1.223205090E1,-2.928795052E1,2.829000235E0
4.352900670E0,-1.223205090E1,-2.928795052E1,2.829000235E0
4.372900670E0,-1.223205090E1,-2.928795052E1,2.829000235E0
4.392900670E0,6.418050289E0,-1.318305016E1,7.864950180E0
4.412900670E0,6.418050289E0,-1.318305016E1,7.864950180E0
4.432900670E0,1.986105156E1,-6.790500283E-1,3.460950136E0
4.452900670E0,1.986105156E1,-6.790500283E-1,3.460950136E0
4.472900670E0,1.986105156E1,-6.790500283E-1,3.460950136E0
4.492900670E0,1.986105156E1,-6.790500283E-1,3.460950136E0
4.512900670E0,1.986105156E1,-6.790500283E-1,3.460950136E0
4.532900670E0,3.852000237E0,-1.090500069E1,2.619000196E0
4.552900670E0,3.852000237E0,-1.090500069E1,2.619000196E0
4.572900670E0,3.852000237E0,-1.090500069E1,2.619000196E0
4.592900670E0,3.852000237E0,-1.090500069E1,2.619000196E0
4.612900670E0,3.852000237E0,-1.090500069E1,2.619000196E0
4.632900670E0,-1.368795109E1,-3.263895035E1,1.135095024E1
4.652900670E0,-1.368795109E1,-3.263895035E1,1.135095024E1
4.672900670E0,-1.368795109E1,-3.263895035E1,1.135095024E1
4.692900670E0,-1.368795109E1,-3.263895035E1,1.135095024E1
4.712900670E0,-1.368795109E1,-3.263895035E1,1.135095024E1
4.732900670E0,-1.368795109E1,-3.263895035E1,1.135095024E1
4.752900670E0,-1.368795109E1,-3.263895035E1,1.135095024E1
4.772900670E0,-7.999500632E-1,2.116050005E0,3.270000219E0
4.792900670E0,-7.999500632E-1,2.116050005E0,3.270000219E0
4.812900670E0,2.052000046E0,1.273050070E0,-6.550500393E-1
4.832900670E0,2.052000046E0,1.273050070E0,-6.550500393E-1
4.852900670E0,2.052000046E0,1.273050070E0,-6.550500393E-1
4.872900670E0,-3.405000210E0,-5.926050186E0,1.411950111E0
4.892900670E0,-3.405000210E0,-5.926050186E0,1.411950111E0
4.912900670E0,-3.405000210E0,-5.926050186E0,1.411950111E0
4.932900670E0,-3.405000210E0,-5.926050186E0,1.411950111E0
4.952900670E0,-3.405000210E0,-5.926050186E0,1.411950111E0
4.972900670E0,-8.211000443E0,-2.693205070E1,5.950950146E0
4.992900670E0,-8.211000443E0,-2.693205070E1,5.950950146E0
5.012900670E0,6.246000290E0,-2.101500130E1,-3.816795349E1
5.032900670E0,6.246000290E0,-2.101500130E1,-3.816795349E1
5.052900670E0,6.246000290E0,-2.101500130E1,-3.816795349E1
5.072900670E0,6.246000290E0,-2.101500130E1,-3.816795349E1
5.092900670E0,6.246000290E0,-2.101500130E1,-3.816795349E1
5.112900670E0,1.130100060E1,1.636950135E0,-1.047795010E1
5.132900670E0,1.130100060E1,1.636950135E0,-1.047795010E1
5.152900670E0,1.110900021E1,2.287950039E0,-4.600050449E0
5.172900670E0,1.110900021E1,2.287950039E0,-4.600050449E0
5.192900670E0,1.110900021E1,2.287950039E0,-4.600050449E0
5.212900670E0,7.854000568E0,-7.707000256E0,1.105949998E0
5.232900670E0,7.854000568E0,-7.707000256E0,1.105949998E0
5.252900670E0,1.591950059E0,-3.907305145E1,6.027000427E0
5.272900670E0,1.591950059E0,-3.907305145E1,6.027000427E0
5.292900670E0,1.591950059E0,-3.907305145E1,6.027000427E0
5.312900670E0,1.591950059E0,-3.907305145E1,6.027000427E0
5.332900670E0,1.591950059E0,-3.907305145E1,6.027000427E0
5.352900670E0,-3.409500122E-1,-3.895950079E0,2.082000017E0
5.372900670E0,-3.409500122E-1,-3.895950079E0,2.082000017E0
5.392900670E0,-7.240500450E-1,1.407000065E0,4.264950275E0
5.412900670E0,-7.240500450E-1,1.407000065E0,4.264950275E0
5.432900670E0,-7.240500450E-1,1.407000065E0,4.264950275E0
5.452900670E0,3.258000135E0,2.001000166E0,2.370000124E0
5.472900670E0,3.258000135E0,2.001000166E0,2.370000124E0
5.492900670E0,7.690500617E-1,-1.962000132E0,-1.759500057E-1
5.512900670E0,7.690500617E-1,-1.962000132E0,-1.759500057E-1
5.532900670E0,7.690500617E-1,-1.962000132E0,-1.759500057E-1
5.552900670E0,7.690500617E-1,-1.962000132E0,-1.759500057E-1
5.572900670E0,7.690500617E-1,-1.962000132E0,-1.759500057E-1
5.592900670E0,-1.520100117E1,-3.625800323E1,6.601950169E0
5.612900670E0,-1.520100117E1,-3.625800323E1,6.601950169E0
5.632900670E0,-1.520100117E1,-3.625800323E1,6.601950169E0
5.652900670E0,-1.520100117E1,-3.625800323E1,6.601950169E0
5.672900670E0,-1.520100117E1,-3.625800323E1,6.601950169E0
5.692900670E0,1.687950134E0,-1.211100101E1,7.060950279E0
5.712900670E0,1.687950134E0,-1.211100101E1,7.060950279E0
5.732900670E0,6.322050095E0,1.599000096E0,7.501950264E0
5.752900670E0,6.322050095E0,1.599000096E0,7.501950264E0
5.772900670E0,6.322050095E0,1.599000096E0,7.501950264E0
5.792900670E0,1.093695068E1,5.563050270E0,-1.945905113E1
5.812900670E0,1.093695068E1,5.563050270E0,-1.945905113E1
5.832900670E0,1.135800076E1,-9.090000391E-1,-4.044000149E0
5.852900670E0,1.135800076E1,-9.090000391E-1,-4.044000149E0
5.872900670E0,1.135800076E1,-9.090000391E-1,-4.044000149E0
5.892900670E0,1.135800076E1,-9.090000391E-1,-4.044000149E0
5.912900670E0,1.135800076E1,-9.090000391E-1,-4.044000149E0
5.932900670E0,1.135800076E1,-9.090000391E-1,-4.044000149E0
5.952900670E0,1.135800076E1,-9.090000391E-1,-4.044000149E0
5.972900670E0,1.135800076E1,-9.090000391E-1,-4.044000149E0
5.992900670E0,1.135800076E1,-9.090000391E-1,-4.044000149E0
6.012900670E0,1.135800076E1,-9.090000391E-1,-4.044000149E0
6.032900670E0,3.090000153E-1,-1.138050079E0,7.039500475E-1
6.052900670E0,3.090000153E-1,-1.138050079E0,7.039500475E-1
6.072900670E0,2.109000206E0,1.924050093E0,-1.497000098E0
6.092900670E0,2.109000206E0,1.924050093E0,-1.497000098E0
6.112900670E0,2.109000206E0,1.924050093E0,-1.497000098E0
6.132900670E0,2.109000206E0,1.924050093E0,-1.497000098E0
6.152900670E0,2.109000206E0,1.924050093E0,-1.497000098E0
6.172900670E0,1.611000061E0,-2.824050188E0,1.240050077E0
6.192900670E0,1.611000061E0,-2.824050188E0,1.240050077E0
6.212900670E0,-2.270700073E1,-3.384495163E1,-3.853050232E0
6.232900670E0,-2.270700073E1,-3.384495163E1,-3.853050232E0
6.252900670E0,-2.270700073E1,-3.384495163E1,-3.853050232E0
6.272900670E0,-1.075800037E1,-2.846400070E1,2.848050117E0
6.292900670E0,-1.075800037E1,-2.846400070E1,2.848050117E0
6.312900670E0,-3.826050282E0,-2.881050110E0,-9.061050415E0
6.332900670E0,-3.826050282E0,-2.881050110E0,-9.061050415E0
6.352900670E0,-3.826050282E0,-2.881050110E0,-9.061050415E0
6.372900670E0,-3.826050282E0,-2.881050110E0,-9.061050415E0
6.392900670E0,-3.826050282E0,-2.881050110E0,-9.061050415E0
6.412900670E0,1.744950056E0,-8.548950195E0,1.068000078E0
6.432900670E0,1.744950056E0,-8.548950195E0,1.068000078E0
6.452900670E0,6.418050289E0,-7.707000256E0,3.231000185E0
6.472900670E0,6.418050289E0,-7.707000256E0,3.231000185E0
6.492900670E0,6.418050289E0,-7.707000256E0,3.231000185E0
6.512900670E0,1.059195042E1,-7.285050392E0,4.131000042E0
6.532900670E0,1.059195042E1,-7.285050392E0,4.131000042E0
6.552900670E0,1.059195042E1,-7.285050392E0,4.131000042E0
6.572900670E0,1.059195042E1,-7.285050392E0,4.131000042E0
6.592900670E0,1.059195042E1,-7.285050392E0,4.131000042E0
6.612900670E0,1.059195042E1,-7.285050392E0,4.131000042E0
6.632900670E0,1.059195042E1,-7.285050392E0,4.131000042E0
6.652900670E0,1.803000093E0,-1.189995098E1,1.642050028E0
6.672900670E0,1.803000093E0,-1.189995098E1,1.642050028E0
6.692900670E0,1.803000093E0,-1.189995098E1,1.642050028E0
6.712900670E0,1.803000093E0,-1.189995098E1,1.642050028E0
6.732900670E0,1.803000093E0,-1.189995098E1,1.642050028E0
6.752900670E0,-6.660000086E-1,-5.313000202E0,4.360949993E0
6.772900670E0,-6.660000086E-1,-5.313000202E0,4.360949993E0
6.792900670E0,-3.790500164E-1,-3.168000221E0,4.687050343E0
6.812900670E0,-3.790500164E-1,-3.168000221E0,4.687050343E0
6.832900670E0,-3.790500164E-1,-3.168000221E0,4.687050343E0
6.852900670E0,3.480000198E-1,-7.228050232E0,2.944050074E0
6.872900670E0,3.480000198E-1,-7.228050232E0,2.944050074E0
6.892900670E0,3.480000198E-1,-7.228050232E0,2.944050074E0
6.912900670E0,3.480000198E-1,-7.228050232E0,2.944050074E0
6.932900670E0,3.480000198E-1,-7.228050232E0,2.944050074E0
6.952900670E0,3.480000198E-1,-7.228050232E0,2.944050074E0
6.972900670E0,3.480000198E-1,-7.228050232E0,2.944050074E0
6.992900670E0,4.819500148E-1,-9.564000130E0,-3.853050232E0
7.012900670E0,4.819500148E-1,-9.564000130E0,-3.853050232E0
7.032900670E0,-1.317000031E0,-8.299950600E0,9.720000625E-1
7.052900670E0,-1.317000031E0,-8.299950600E0,9.720000625E-1
7.072900670E0,-1.317000031E0,-8.299950600E0,9.720000625E-1
7.092900670E0,6.000000238E-2,-7.515000343E0,1.929000139E0
7.112900670E0,6.000000238E-2,-7.515000343E0,1.929000139E0
7.132900670E0,-1.528050065E0,-1.498305035E1,1.009950042E0
7.152900670E0,-1.528050065E0,-1.498305035E1,1.009950042E0
7.172900670E0,-1.528050065E0,-1.498305035E1,1.009950042E0
7.192900670E0,-1.528050065E0,-1.498305035E1,1.009950042E0
7.212900670E0,-1.528050065E0,-1.498305035E1,1.009950042E0
7.232900670E0,-3.136950254E0,-8.683050156E0,1.795050144E0
7.252900670E0,-3.136950254E0,-8.683050156E0,1.795050144E0
7.272900670E0,-3.136950254E0,-8.683050156E0,1.795050144E0
7.292900670E0,-3.136950254E0,-8.683050156E0,1.795050144E0
7.312900670E0,-3.136950254E0,-8.683050156E0,1.795050144E0
7.332900670E0,-1.948950052E0,-8.683050156E0,1.411950111E0
7.352900670E0,-1.948950052E0,-8.683050156E0,1.411950111E0
7.372900670E0,-1.948950052E0,-8.683050156E0,1.411950111E0
7.392900670E0,-1.948950052E0,-8.683050156E0,1.411950111E0
7.412900670E0,-1.948950052E0,-8.683050156E0,1.411950111E0
7.432900670E0,-1.948950052E0,-8.683050156E0,1.411950111E0
7.452900670E0,-1.948950052E0,-8.683050156E0,1.411950111E0
7.472900670E0,4.924050331E0,-1.019595051E1,1.068000078E0
7.492900670E0,4.924050331E0,-1.019595051E1,1.068000078E0
7.512900670E0,6.054000378E0,-8.089950562E0,1.738050103E0
7.532900670E0,6.054000378E0,-8.089950562E0,1.738050103E0
7.552900670E0,6.054000378E0,-8.089950562E0,1.738050103E0
7.572900670E0,2.875050068E0,-1.285800076E1,8.760000467E-1
7.592900670E0,2.875050068E0,-1.285800076E1,8.760000467E-1
7.612900670E0,2.875050068E0,-1.285800076E1,8.760000467E-1
7.632900670E0,2.875050068E0,-1.285800076E1,8.760000467E-1
7.652900670E0,2.875050068E0,-1.285800076E1,8.760000467E-1
7.672900670E0,-4.170000255E-1,-9.660000801E0,-1.363050103E0
7.692900670E0,-4.170000255E-1,-9.660000801E0,-1.363050103E0
7.712900670E0,-4.170000255E-1,-9.660000801E0,-1.363050103E0
7.732900670E0,-4.170000255E-1,-9.660000801E0,-1.363050103E0
7.752900670E0,-4.170000255E-1,-9.660000801E0,-1.363050103E0
7.772900670E0,-4.170000255E-1,-9.660000801E0,-1.363050103E0
7.792900670E0,-4.170000255E-1,-9.660000801E0,-1.363050103E0
7.812900670E0,1.458000064E0,-1.000500011E1,3.174000263E0
7.832900670E0,1.458000064E0,-1.000500011E1,3.174000263E0
7.852900670E0,6.000000238E-2,-8.242950439E0,9.105000645E-2
7.872900670E0,6.000000238E-2,-8.242950439E0,9.105000645E-2
7.892900670E0,6.000000238E-2,-8.242950439E0,9.105000645E-2
7.912900670E0,-7.050000429E-1,-6.289950371E0,2.059500068E-1
7.932900670E0,-7.050000429E-1,-6.289950371E0,2.059500068E-1
7.952900670E0,-7.050000429E-1,-6.289950371E0,2.059500068E-1
7.972900670E0,-7.050000429E-1,-6.289950371E0,2.059500068E-1
7.992900670E0,-7.050000429E-1,-6.289950371E0,2.059500068E-1
8.012900670E0,-7.050000429E-1,-6.289950371E0,2.059500068E-1
8.032900670E0,-7.050000429E-1,-6.289950371E0,2.059500068E-1
8.052900670E0,-1.680000126E-1,-2.028795052E1,3.519000053E0
8.072900670E0,-1.680000126E-1,-2.028795052E1,3.519000053E0
8.092900670E0,-1.680000126E-1,-2.028795052E1,3.519000053E0
8.112900670E0,-1.680000126E-1,-2.028795052E1,3.519000053E0
8.132900670E0,-1.680000126E-1,-2.028795052E1,3.519000053E0
8.152900670E0,-5.683050156E0,-6.922050476E0,4.159500301E-1
8.172900670E0,-5.683050156E0,-6.922050476E0,4.159500301E-1
8.192900670E0,-5.683050156E0,-6.922050476E0,4.159500301E-1
8.212900670E0,-5.683050156E0,-6.922050476E0,4.159500301E-1
8.232900670E0,-5.683050156E0,-6.922050476E0,4.159500301E-1
8.252900670E0,-5.683050156E0,-6.922050476E0,4.159500301E-1
8.272900670E0,-5.683050156E0,-6.922050476E0,4.159500301E-1
8.292900670E0,2.434950113E0,-9.430050850E0,-3.508050203E0
8.312900670E0,2.434950113E0,-9.430050850E0,-3.508050203E0
8.332900670E0,2.434950113E0,-9.430050850E0,-3.508050203E0
8.352900670E0,2.434950113E0,-9.430050850E0,-3.508050203E0
8.372900670E0,2.434950113E0,-9.430050850E0,-3.508050203E0
8.392900670E0,4.240500331E-1,-8.701950073E0,2.025000095E0
8.412900670E0,4.240500331E-1,-8.701950073E0,2.025000095E0
8.432900670E0,-4.560000300E-1,-1.276200104E1,1.411950111E0
8.452900670E0,-4.560000300E-1,-1.276200104E1,1.411950111E0
8.472900670E0,-4.560000300E-1,-1.276200104E1,1.411950111E0
8.492900670E0,9.990000725E-1,-1.483005047E1,1.891050100E0
8.512900670E0,9.990000725E-1,-1.483005047E1,1.891050100E0
8.532900670E0,5.020050049E0,-1.295295048E1,-2.875950098E0
8.552900670E0,5.020050049E0,-1.295295048E1,-2.875950098E0
8.572900670E0,5.020050049E0,-1.295295048E1,-2.875950098E0
8.592900670E0,5.020050049E0,-1.295295048E1,-2.875950098E0
8.612900670E0,5.020050049E0,-1.295295048E1,-2.875950098E0
8.632900670E0,4.693950176E0,-1.172805023E1,3.250950098E0
8.652900670E0,4.693950176E0,-1.172805023E1,3.250950098E0
8.672900670E0,-5.224050045E0,-2.247105026E1,3.307950258E0
8.692900670E0,-5.224050045E0,-2.247105026E1,3.307950258E0
8.712900670E0,-5.224050045E0,-2.247105026E1,3.307950258E0
8.732900670E0,-7.120050430E0,-1.498305035E1,7.770000458E0
8.752900670E0,-7.120050430E0,-1.498305035E1,7.770000458E0
8.772900670E0,-2.887950182E0,-3.724050283E0,-8.736000061E0
8.792900670E0,-2.887950182E0,-3.724050283E0,-8.736000061E0
8.812900670E0,-2.887950182E0,-3.724050283E0,-8.736000061E0
8.832900670E0,-2.887950182E0,-3.724050283E0,-8.736000061E0
8.852900670E0,-2.887950182E0,-3.724050283E0,-8.736000061E0
8.872900670E0,-5.338950157E0,-2.479050159E0,1.258950114E0
8.892900670E0,-5.338950157E0,-2.479050159E0,1.258950114E0
8.912900670E0,-5.338950157E0,-2.479050159E0,1.258950114E0
8.932900670E0,-5.338950157E0,-2.479050159E0,1.258950114E0
8.952900670E0,-5.338950157E0,-2.479050159E0,1.258950114E0
8.972900670E0,1.049700069E1,-1.444695091E1,2.829000235E0
8.992900670E0,1.049700069E1,-1.444695091E1,2.829000235E0
9.012900670E0,-7.620000243E-1,-1.656000137E0,1.795050144E0
9.032900670E0,-7.620000243E-1,-1.656000137E0,1.795050144E0
9.052900670E0,-7.620000243E-1,-1.656000137E0,1.795050144E0
9.072900670E0,-7.620000243E-1,-1.656000137E0,1.795050144E0
9.092900670E0,-7.620000243E-1,-1.656000137E0,1.795050144E0
9.112900670E0,-9.666000366E0,-1.592205048E1,-5.779500008E-1
9.132900670E0,-9.666000366E0,-1.592205048E1,-5.779500008E-1
9.152900670E0,-1.006905079E1,-1.258995056E1,1.354950070E0
9.172900670E0,-1.006905079E1,-1.258995056E1,1.354950070E0
9.192900670E0,-1.006905079E1,-1.258995056E1,1.354950070E0
9.212900670E0,-4.726050377E0,-1.203405094E1,6.313950062E0
9.232900670E0,-4.726050377E0,-1.203405094E1,6.313950062E0
9.252900670E0,-4.726050377E0,-1.203405094E1,6.313950062E0
9.272900670E0,-4.726050377E0,-1.203405094E1,6.313950062E0
9.292900670E0,-4.726050377E0,-1.203405094E1,6.313950062E0
9.312900670E0,-4.726050377E0,-1.203405094E1,6.313950062E0
9.332900670E0,-4.726050377E0,-1.203405094E1,6.313950062E0
9.352900670E0,1.978395081E1,-3.301950216E0,-1.306050062E0
9.372900670E0,1.978395081E1,-3.301950216E0,-1.306050062E0
9.392900670E0,7.854000568E0,6.999000549E0,-1.091895008E1
9.392900670E0,7.854000568E0,6.999000549E0,-1.091895008E1
9.432900670E0,7.854000568E0,6.999000549E0,-1.091895008E1
9.452900670E0,3.736950159E0,-2.785050154E0,9.139500260E-1
9.472900670E0,3.736950159E0,-2.785050154E0,9.139500260E-1
9.492900670E0,-9.540000558E-1,-3.304095078E1,-1.000005054E1
9.512900670E0,-9.540000558E-1,-3.304095078E1,-1.000005054E1
9.532900670E0,-9.540000558E-1,-3.304095078E1,-1.000005054E1
9.552900670E0,-1.165800095E1,-3.907305145E1,1.104405022E1
9.572900670E0,-1.165800095E1,-3.907305145E1,1.104405022E1
9.592900670E0,-1.165800095E1,-3.907305145E1,1.104405022E1
9.612900670E0,-1.165800095E1,-3.907305145E1,1.104405022E1
9.632900670E0,-1.165800095E1,-3.907305145E1,1.104405022E1
9.652900670E0,-1.165800095E1,-3.907305145E1,1.104405022E1
9.672900670E0,-1.165800095E1,-3.907305145E1,1.104405022E1
9.692900670E0,1.228050113E0,1.771050096E0,2.982000113E0
9.712900670E0,1.228050113E0,1.771050096E0,2.982000113E0
9.732900670E0,4.330950260E0,1.254000068E0,1.968000054E0
9.752900670E0,4.330950260E0,1.254000068E0,1.968000054E0
9.772900670E0,4.330950260E0,1.254000068E0,1.968000054E0
9.792900670E0,2.520000041E-1,-1.464000106E0,2.619000196E0
9.812900670E0,2.520000041E-1,-1.464000106E0,2.619000196E0
9.832900670E0,-4.803000450E0,-4.450950146E0,3.748050213E0
9.852900670E0,-4.803000450E0,-4.450950146E0,3.748050213E0
9.872900670E0,-4.803000450E0,-4.450950146E0,3.748050213E0
9.892900670E0,-4.803000450E0,-4.450950146E0,3.748050213E0
9.912900670E0,-4.803000450E0,-4.450950146E0,3.748050213E0
9.932900670E0,-4.803000450E0,-4.450950146E0,3.748050213E0
9.952900670E0,-4.803000450E0,-4.450950146E0,3.748050213E0
9.972900670E0,-4.803000450E0,-4.450950146E0,3.748050213E0
9.992900670E0,-4.803000450E0,-4.450950146E0,3.748050213E0
1.001290067E1,-4.803000450E0,-4.450950146E0,3.748050213E0
1.003290067E1,1.153095055E1,-5.640000105E-1,1.354950070E0
1.005290067E1,1.153095055E1,-5.640000105E-1,1.354950070E0
1.007290067E1,1.918050051E0,-3.475050211E0,-4.561050415E0
1.009290067E1,1.918050051E0,-3.475050211E0,-4.561050415E0
1.011290067E1,1.918050051E0,-3.475050211E0,-4.561050415E0
1.013290067E1,1.918050051E0,-3.475050211E0,-4.561050415E0
1.015290067E1,1.918050051E0,-3.475050211E0,-4.561050415E0
1.017290067E1,-6.660000086E-1,-2.593695068E1,1.376295090E1
1.019290067E1,-6.660000086E-1,-2.593695068E1,1.376295090E1
1.021290067E1,6.000000238E-2,-6.652950287E0,-5.209500194E-1
1.023290067E1,6.000000238E-2,-6.652950287E0,-5.209500194E-1
1.025290067E1,6.000000238E-2,-6.652950287E0,-5.209500194E-1
1.027290067E1,-1.030050039E0,-8.509500623E-1,1.258950114E0
1.029290067E1,-1.030050039E0,-8.509500623E-1,1.258950114E0
1.031290067E1,-1.030050039E0,-8.509500623E-1,1.258950114E0
1.033290067E1,-1.030050039E0,-8.509500623E-1,1.258950114E0
1.035290067E1,-1.030050039E0,-8.509500623E-1,1.258950114E0
1.037290067E1,-1.030050039E0,-8.509500623E-1,1.258950114E0
1.039290067E1,-1.030050039E0,-8.509500623E-1,1.258950114E0
1.041290067E1,4.618050098E0,-6.558000088E0,2.250000089E-1
1.043290067E1,4.618050098E0,-6.558000088E0,2.250000089E-1
1.045290067E1,4.618050098E0,-6.558000088E0,2.250000089E-1
1.047290067E1,4.618050098E0,-6.558000088E0,2.250000089E-1
1.049290067E1,4.618050098E0,-6.558000088E0,2.250000089E-1
1.051290067E1,-7.942950249E0,-2.040300179E1,3.978000164E0
1.053290067E1,-7.942950249E0,-2.040300179E1,3.978000164E0
1.055290067E1,-8.613000870E0,-5.256000042E0,-1.950000077E-1
1.057290067E1,-8.613000870E0,-5.256000042E0,-1.950000077E-1
1.059290067E1,-8.613000870E0,-5.256000042E0,-1.950000077E-1
1.061290067E1,-6.946950436E0,-1.693950057E0,3.634050131E0
1.063290067E1,-6.946950436E0,-1.693950057E0,3.634050131E0
1.065290067E1,-4.897950172E0,-3.456000090E0,2.158950090E0
1.067290067E1,-4.897950172E0,-3.456000090E0,2.158950090E0
1.069290067E1,-4.897950172E0,-3.456000090E0,2.158950090E0
1.071290067E1,-4.897950172E0,-3.456000090E0,2.158950090E0
1.073290067E1,-4.897950172E0,-3.456000090E0,2.158950090E0
1.075290067E1,6.187950134E0,-2.218305016E1,9.454950333E0
1.077290067E1,6.187950134E0,-2.218305016E1,9.454950333E0
1.079290067E1,6.187950134E0,-2.218305016E1,9.454950333E0
1.081290067E1,6.187950134E0,-2.218305016E1,9.454950333E0
1.083290067E1,6.187950134E0,-2.218305016E1,9.454950333E0
1.085290067E1,1.143495083E1,-6.595950127E0,-9.693000793E0
1.087290067E1,1.143495083E1,-6.595950127E0,-9.693000793E0
1.089290067E1,8.070000410E-1,-1.205295086E1,-7.510050297E0
1.091290067E1,8.070000410E-1,-1.205295086E1,-7.510050297E0
1.093290067E1,8.070000410E-1,-1.205295086E1,-7.510050297E0
1.095290067E1,8.070000410E-1,-1.205295086E1,-7.510050297E0
1.097290067E1,8.070000410E-1,-1.205295086E1,-7.510050297E0
1.099290067E1,-4.036950111E0,-2.179995155E1,7.387050152E0
1.101290067E1,-4.036950111E0,-2.179995155E1,7.387050152E0
1.103290067E1,-4.170000255E-1,-6.787050247E0,1.290000081E-1
1.105290067E1,-4.170000255E-1,-6.787050247E0,1.290000081E-1
1.107290067E1,-4.170000255E-1,-6.787050247E0,1.290000081E-1
1.109290067E1,-9.150000215E-1,-3.666000128E0,-2.719500065E-1
1.111290067E1,-9.150000215E-1,-3.666000128E0,-2.719500065E-1
1.113290067E1,-9.150000215E-1,-3.666000128E0,-2.719500065E-1
1.115290067E1,-9.150000215E-1,-3.666000128E0,-2.719500065E-1
1.117290067E1,-9.150000215E-1,-3.666000128E0,-2.719500065E-1
1.119290067E1,-9.150000215E-1,-3.666000128E0,-2.719500065E-1
1.121290067E1,-9.150000215E-1,-3.666000128E0,-2.719500065E-1
1.123290067E1,1.068795013E1,-1.201500034E1,9.139500260E-1
1.125290067E1,1.068795013E1,-1.201500034E1,9.139500260E-1
1.127290067E1,1.068795013E1,-1.201500034E1,9.139500260E-1
1.129290067E1,1.068795013E1,-1.201500034E1,9.139500260E-1
1.131290067E1,1.068795013E1,-1.201500034E1,9.139500260E-1
1.133290067E1,1.152000070E0,-1.712805176E1,-2.034000158E0
1.135290067E1,1.152000070E0,-1.712805176E1,-2.034000158E0
1.137290067E1,-5.779050350E0,-1.153605080E1,-1.918950081E0
1.139290067E1,-5.779050350E0,-1.153605080E1,-1.918950081E0
1.141290067E1,-5.779050350E0,-1.153605080E1,-1.918950081E0
1.143290067E1,-5.262000084E0,-9.736050606E0,2.121000051E0
1.145290067E1,-5.262000084E0,-9.736050606E0,2.121000051E0
1.147290067E1,-2.620050192E0,-6.385050297E0,5.950950146E0
1.149290067E1,-2.620050192E0,-6.385050297E0,5.950950146E0
1.151290067E1,-2.620050192E0,-6.385050297E0,5.950950146E0
1.153290067E1,-2.620050192E0,-6.385050297E0,5.950950146E0
1.155290067E1,-2.620050192E0,-6.385050297E0,5.950950146E0
1.157290067E1,1.707000136E0,-9.583050728E0,-3.679500222E-1
1.159290067E1,1.707000136E0,-9.583050728E0,-3.679500222E-1
1.161290067E1,1.707000136E0,-9.583050728E0,-3.679500222E-1
1.163290067E1,1.707000136E0,-9.583050728E0,-3.679500222E-1
1.165290067E1,1.707000136E0,-9.583050728E0,-3.679500222E-1
1.167290067E1,6.628050327E0,-1.475400066E1,1.009950042E0
1.169290067E1,6.628050327E0,-1.475400066E1,1.009950042E0
1.171290067E1,9.098999977E0,-1.222605038E1,1.719000101E0
1.173290067E1,9.098999977E0,-1.222605038E1,1.719000101E0
1.175290067E1,9.098999977E0,-1.222605038E1,1.719000101E0
1.177290067E1,9.098999977E0,-1.222605038E1,1.719000101E0
1.179290067E1,9.098999977E0,-1.222605038E1,1.719000101E0
1.181290067E1,1.458000064E0,-1.490700054E1,-2.704050064E0
1.183290067E1,1.458000064E0,-1.490700054E1,-2.704050064E0
1.185290067E1,-1.560300064E1,-3.907305145E1,2.629500031E-1
1.187290067E1,-1.560300064E1,-3.907305145E1,2.629500031E-1
1.189290067E1,-1.560300064E1,-3.907305145E1,2.629500031E-1
1.191290067E1,-7.981050491E0,-1.406400108E1,1.068000078E0
1.193290067E1,-7.981050491E0,-1.406400108E1,1.068000078E0
1.195290067E1,-7.981050491E0,-1.406400108E1,1.068000078E0
1.197290067E1,-7.981050491E0,-1.406400108E1,1.068000078E0
1.199290067E1,-7.981050491E0,-1.406400108E1,1.068000078E0
1.201290067E1,-7.981050491E0,-1.406400108E1,1.068000078E0
1.203290067E1,-7.981050491E0,-1.406400108E1,1.068000078E0
1.205290067E1,-1.854000092E0,1.732950091E0,3.787050247E0
1.207290067E1,-1.854000092E0,1.732950091E0,3.787050247E0
1.209290067E1,-1.854000092E0,1.732950091E0,3.787050247E0
1.211290067E1,-1.854000092E0,1.732950091E0,3.787050247E0
1.213290067E1,-1.854000092E0,1.732950091E0,3.787050247E0
1.215290067E1,1.087995052E1,-1.414095020E1,-8.659049988E0
1.217290067E1,1.087995052E1,-1.414095020E1,-8.659049988E0
1.219290067E1,-1.183050036E0,-1.961700058E1,1.675094986E1
1.221290067E1,-1.183050036E0,-1.961700058E1,1.675094986E1
1.223290067E1,-1.183050036E0,-1.961700058E1,1.675094986E1
1.225290067E1,-1.236600018E1,-1.276200104E1,9.091050148E0
1.227290067E1,-1.236600018E1,-1.276200104E1,9.091050148E0
1.229290067E1,-1.165800095E1,-1.582605076E1,5.089050293E0
1.231290067E1,-1.165800095E1,-1.582605076E1,5.089050293E0
1.233290067E1,-1.165800095E1,-1.582605076E1,5.089050293E0
1.235290067E1,-1.165800095E1,-1.582605076E1,5.089050293E0
1.237290067E1,-1.165800095E1,-1.582605076E1,5.089050293E0
1.239290067E1,-1.048950076E0,-1.103895092E1,4.954950333E0
1.241290067E1,-1.048950076E0,-1.103895092E1,4.954950333E0
1.243290067E1,9.807000160E0,-1.467705059E1,-1.842000127E0
1.245290067E1,9.807000160E0,-1.467705059E1,-1.842000127E0
1.247290067E1,9.807000160E0,-1.467705059E1,-1.842000127E0
1.249290067E1,1.108995056E1,-9.507000923E0,1.297050118E0
1.251290067E1,1.108995056E1,-9.507000923E0,1.297050118E0
1.253290067E1,7.873050213E0,-5.524050236E0,-3.679950237E0
1.255290067E1,7.873050213E0,-5.524050236E0,-3.679950237E0
1.257290067E1,7.873050213E0,-5.524050236E0,-3.679950237E0
1.259290067E1,7.873050213E0,-5.524050236E0,-3.679950237E0
1.261290067E1,7.873050213E0,-5.524050236E0,-3.679950237E0
1.263290067E1,8.371050835E0,-1.341300106E1,6.460500360E-1
1.265290067E1,8.371050835E0,-1.341300106E1,6.460500360E-1
1.267290067E1,8.371050835E0,-1.341300106E1,6.460500360E-1
1.269290067E1,8.371050835E0,-1.341300106E1,6.460500360E-1
1.271290067E1,8.371050835E0,-1.341300106E1,6.460500360E-1
1.273290067E1,-5.224050045E0,-1.909995079E1,1.142700100E1
1.275290067E1,-5.224050045E0,-1.909995079E1,1.142700100E1
1.277290067E1,-6.469050407E0,-1.303005028E1,7.750950336E0
1.279290067E1,-6.469050407E0,-1.303005028E1,7.750950336E0
1.281290067E1,-6.469050407E0,-1.303005028E1,7.750950336E0
1.283290067E1,-6.469050407E0,-1.303005028E1,7.750950336E0
1.285290067E1,-6.469050407E0,-1.303005028E1,7.750950336E0
1.287290067E1,-7.158000469E0,-9.199950218E0,-2.669805145E1
1.289290067E1,-7.158000469E0,-9.199950218E0,-2.669805145E1
1.291290067E1,-7.158000469E0,-9.199950218E0,-2.669805145E1
1.293290067E1,-7.158000469E0,-9.199950218E0,-2.669805145E1
1.295290067E1,-7.158000469E0,-9.199950218E0,-2.669805145E1
1.297290067E1,2.520000041E-1,-6.595950127E0,-5.590500236E-1
1.299290067E1,2.520000041E-1,-6.595950127E0,-5.590500236E-1
1.301290067E1,2.520000041E-1,-6.595950127E0,-5.590500236E-1
1.303290067E1,2.520000041E-1,-6.595950127E0,-5.590500236E-1
1.305290067E1,2.520000041E-1,-6.595950127E0,-5.590500236E-1
1.307290067E1,2.520000041E-1,-6.595950127E0,-5.590500236E-1
1.309290067E1,2.520000041E-1,-6.595950127E0,-5.590500236E-1
1.311290067E1,2.530950069E0,-6.826050282E0,1.870500147E-1
1.313290067E1,2.530950069E0,-6.826050282E0,1.870500147E-1
1.315290067E1,2.530950069E0,-6.826050282E0,1.870500147E-1
1.317290067E1,2.530950069E0,-6.826050282E0,1.870500147E-1
1.319290067E1,2.530950069E0,-6.826050282E0,1.870500147E-1
1.321290067E1,7.299000263E0,-1.500195026E1,-5.863050461E0
1.323290067E1,7.299000263E0,-1.500195026E1,-5.863050461E0
1.325290067E1,2.836950064E0,-9.756000519E0,-3.183000088E0
1.327290067E1,2.836950064E0,-9.756000519E0,-3.183000088E0
1.329290067E1,2.836950064E0,-9.756000519E0,-3.183000088E0
1.331290067E1,-5.128050327E0,-1.802805138E1,-3.834000111E0
1.333290067E1,-5.128050327E0,-1.802805138E1,-3.834000111E0
1.335290067E1,-5.128050327E0,-1.802805138E1,-3.834000111E0
1.337290067E1,-5.128050327E0,-1.802805138E1,-3.834000111E0
1.339290067E1,-5.128050327E0,-1.802805138E1,-3.834000111E0
1.341290067E1,-5.128050327E0,-1.802805138E1,-3.834000111E0
1.343290067E1,-5.128050327E0,-1.802805138E1,-3.834000111E0
1.345290067E1,-9.730500579E-1,-9.373050690E0,5.529000282E0
1.347290067E1,-9.730500579E-1,-9.373050690E0,5.529000282E0
1.349290067E1,-9.730500579E-1,-9.373050690E0,5.529000282E0
1.351290067E1,-9.730500579E-1,-9.373050690E0,5.529000282E0
1.353290067E1,-9.730500579E-1,-9.373050690E0,5.529000282E0
1.355290067E1,1.939500123E-1,-8.299950600E0,-7.309500575E-1
1.357290067E1,1.939500123E-1,-8.299950600E0,-7.309500575E-1
1.359290067E1,1.075049996E0,-1.038795090E1,9.720000625E-1
1.361290067E1,1.075049996E0,-1.038795090E1,9.720000625E-1
1.363290067E1,1.075049996E0,-1.038795090E1,9.720000625E-1
1.365290067E1,1.075049996E0,-1.038795090E1,9.720000625E-1
1.367290067E1,1.075049996E0,-1.038795090E1,9.720000625E-1
1.369290067E1,8.839500546E-1,-1.622805023E1,-1.804050088E0
1.371290067E1,8.839500546E-1,-1.622805023E1,-1.804050088E0
1.373290067E1,8.839500546E-1,-1.622805023E1,-1.804050088E0
1.375290067E1,8.839500546E-1,-1.622805023E1,-1.804050088E0
1.377290067E1,8.839500546E-1,-1.622805023E1,-1.804050088E0
1.379290067E1,6.667050362E0,-1.278105068E1,1.336050034E0
1.381290067E1,6.667050362E0,-1.278105068E1,1.336050034E0
1.383290067E1,5.460000038E0,-1.297305107E1,5.931000233E0
1.385290067E1,5.460000038E0,-1.297305107E1,5.931000233E0
1.387290067E1,5.460000038E0,-1.297305107E1,5.931000233E0
1.389290067E1,5.460000038E0,-1.297305107E1,5.931000233E0
1.391290067E1,5.460000038E0,-1.297305107E1,5.931000233E0
1.393290067E1,5.460000038E0,-1.297305107E1,5.931000233E0
1.395290067E1,5.460000038E0,-1.297305107E1,5.931000233E0
1.397290067E1,-7.810500264E-1,-3.609000206E0,-2.949300194E1
1.399290067E1,-7.810500264E-1,-3.609000206E0,-2.949300194E1
1.401290067E1,-7.810500264E-1,-3.609000206E0,-2.949300194E1
1.403290067E1,-3.499950171E0,-3.762000084E0,1.374000072E0
1.405290067E1,-3.499950171E0,-3.762000084E0,1.374000072E0
1.407290067E1,-6.085950375E0,-8.434050560E0,6.103950500E0
1.409290067E1,-6.085950375E0,-8.434050560E0,6.103950500E0
1.411290067E1,-6.085950375E0,-8.434050560E0,6.103950500E0
1.413290067E1,-1.450950027E0,-7.189950466E0,-1.669950128E0
1.415290067E1,-1.450950027E0,-7.189950466E0,-1.669950128E0
1.417290067E1,-1.450950027E0,-7.189950466E0,-1.669950128E0
1.419290067E1,-1.450950027E0,-7.189950466E0,-1.669950128E0
1.421290067E1,-1.450950027E0,-7.189950466E0,-1.669950128E0
1.423290067E1,-1.450950027E0,-7.189950466E0,-1.669950128E0
1.425290067E1,-1.450950027E0,-7.189950466E0,-1.669950128E0
1.427290067E1,-8.440950394E0,-1.132605076E1,2.638050079E0
1.429290067E1,-8.440950394E0,-1.132605076E1,2.638050079E0
1.431290067E1,-1.543005085E1,-1.766400146E1,-8.080500364E-1
1.433290067E1,-1.543005085E1,-1.766400146E1,-8.080500364E-1
1.435290067E1,-1.543005085E1,-1.766400146E1,-8.080500364E-1
1.437290067E1,-6.181050301E0,-1.437105083E1,4.476000309E0
1.439290067E1,-6.181050301E0,-1.437105083E1,4.476000309E0
1.441290067E1,-2.505000114E0,-3.424695206E1,8.574000359E0
1.443290067E1,-2.505000114E0,-3.424695206E1,8.574000359E0
1.445290067E1,-2.505000114E0,-3.424695206E1,8.574000359E0
1.447290067E1,-2.505000114E0,-3.424695206E1,8.574000359E0
1.449290067E1,-2.505000114E0,-3.424695206E1,8.574000359E0
1.451290067E1,8.563050270E0,-4.642950058E0,-8.487000465E0
1.453290067E1,8.563050270E0,-4.642950058E0,-8.487000465E0
1.455290067E1,8.563050270E0,-4.642950058E0,-8.487000465E0
1.457290067E1,8.563050270E0,-4.642950058E0,-8.487000465E0
1.459290067E1,8.563050270E0,-4.642950058E0,-8.487000465E0
1.461290067E1,7.183950424E0,2.689950228E0,-1.570500135E-1
1.463290067E1,7.183950424E0,2.689950228E0,-1.570500135E-1
1.465290067E1,4.636950016E0,-3.168000221E0,3.136050224E0
1.467290067E1,4.636950016E0,-3.168000221E0,3.136050224E0
1.469290067E1,4.636950016E0,-3.168000221E0,3.136050224E0
1.471290067E1,4.636950016E0,-3.168000221E0,3.136050224E0
1.473290067E1,4.636950016E0,-3.168000221E0,3.136050224E0
1.475290067E1,-2.773050070E0,-3.277305222E1,1.378305054E1
1.477290067E1,-2.773050070E0,-3.277305222E1,1.378305054E1
1.479290067E1,-1.968000054E0,-5.658000469E0,-3.018300056E1
1.481290067E1,-1.968000054E0,-5.658000469E0,-3.018300056E1
1.483290067E1,-1.968000054E0,-5.658000469E0,-3.018300056E1
1.485290067E1,-2.083050013E0,-2.938950062E0,1.068000078E0
1.487290067E1,-2.083050013E0,-2.938950062E0,1.068000078E0
1.489290067E1,-2.083050013E0,-2.938950062E0,1.068000078E0
1.491290067E1,-2.083050013E0,-2.938950062E0,1.068000078E0
1.493290067E1,-2.083050013E0,-2.938950062E0,1.068000078E0
1.495290067E1,7.905000448E-2,1.924050093E0,3.768000126E0
1.497290067E1,7.905000448E-2,1.924050093E0,3.768000126E0
1.499290067E1,-2.734050035E0,-8.899500370E-1,2.140050173E0
1.501290067E1,-2.734050035E0,-8.899500370E-1,2.140050173E0
1.503290067E1,-2.734050035E0,-8.899500370E-1,2.140050173E0
1.505290067E1,-2.734050035E0,-8.899500370E-1,2.140050173E0
1.507290067E1,-2.734050035E0,-8.899500370E-1,2.140050173E0
1.509290067E1,-1.361100101E1,-2.861700058E1,1.489050031E0
1.511290067E1,-1.361100101E1,-2.861700058E1,1.489050031E0
1.513290067E1,-7.099950314E0,-2.773695183E1,7.636050224E0
1.515290067E1,-7.099950314E0,-2.773695183E1,7.636050224E0
1.517290067E1,-7.099950314E0,-2.773695183E1,7.636050224E0
1.519290067E1,5.344950199E0,-1.875600052E1,-2.530499995E-1
1.521290067E1,5.344950199E0,-1.875600052E1,-2.530499995E-1
1.523290067E1,5.344950199E0,-1.875600052E1,-2.530499995E-1
1.525290067E1,5.344950199E0,-1.875600052E1,-2.530499995E-1
1.527290067E1,5.344950199E0,-1.875600052E1,-2.530499995E-1
1.529290067E1,5.344950199E0,-1.875600052E1,-2.530499995E-1
1.531290067E1,5.344950199E0,-1.875600052E1,-2.530499995E-1
1.533290067E1,7.528050423E0,-6.519000530E0,-6.457050323E0
1.535290067E1,7.528050423E0,-6.519000530E0,-6.457050323E0
1.537290067E1,1.554000020E0,-3.907305145E1,-7.893000603E0
1.539290067E1,1.554000020E0,-3.907305145E1,-7.893000603E0
1.541290067E1,1.554000020E0,-3.907305145E1,-7.893000603E0
1.543290067E1,5.970000029E-1,-2.982405090E1,2.264895058E1
1.545290067E1,5.970000029E-1,-2.982405090E1,2.264895058E1
1.547290067E1,5.970000029E-1,-2.982405090E1,2.264895058E1
1.549290067E1,5.970000029E-1,-2.982405090E1,2.264895058E1
1.551290067E1,5.970000029E-1,-2.982405090E1,2.264895058E1
1.553290067E1,5.970000029E-1,-2.982405090E1,2.264895058E1
1.555290067E1,5.970000029E-1,-2.982405090E1,2.264895058E1
1.557290067E1,-5.089950085E0,7.401000500E0,4.438050270E0
1.559290067E1,-5.089950085E0,7.401000500E0,4.438050270E0
1.561290067E1,-5.089950085E0,7.401000500E0,4.438050270E0
1.563290067E1,-5.089950085E0,7.401000500E0,4.438050270E0
1.565290067E1,-5.089950085E0,7.401000500E0,4.438050270E0
1.567290067E1,-1.290300083E1,-1.094295025E1,1.258950114E0
1.569290067E1,-1.290300083E1,-1.094295025E1,1.258950114E0
1.571290067E1,-1.738395119E1,-3.853695297E1,4.897050381E0
1.573290067E1,-1.738395119E1,-3.853695297E1,4.897050381E0
1.575290067E1,-1.738395119E1,-3.853695297E1,4.897050381E0
1.577290067E1,-1.738395119E1,-3.853695297E1,4.897050381E0
1.579290067E1,-1.738395119E1,-3.853695297E1,4.897050381E0
1.581290067E1,6.169050217E0,-1.379595089E1,9.052950859E0
1.583290067E1,6.169050217E0,-1.379595089E1,9.052950859E0
1.585290067E1,6.169050217E0,-1.379595089E1,9.052950859E0
1.587290067E1,6.169050217E0,-1.379595089E1,9.052950859E0
1.589290067E1,6.169050217E0,-1.379595089E1,9.052950859E0
1.591290067E1,9.903000832E0,4.834950447E0,-9.061050415E0
1.593290067E1,9.903000832E0,4.834950447E0,-9.061050415E0
1.595290067E1,9.903000832E0,4.834950447E0,-9.061050415E0
1.597290067E1,9.903000832E0,4.834950447E0,-9.061050415E0
1.599290067E1,9.903000832E0,4.834950447E0,-9.061050415E0
1.601290067E1,3.430950165E0,-3.868995285E1,-8.793000221E0
1.603290067E1,3.430950165E0,-3.868995285E1,-8.793000221E0
1.605290067E1,-3.538395309E1,-2.461500168E1,3.120795059E1
1.607290067E1,-3.538395309E1,-2.461500168E1,3.120795059E1
1.609290067E1,-7.426050186E0,-1.523205090E1,-5.059050083E0
1.611290067E1,-7.426050186E0,-1.523205090E1,-5.059050083E0
1.613290067E1,-7.426050186E0,-1.523205090E1,-5.059050083E0
1.615290067E1,4.216050148E0,-9.090000391E-1,-8.620950699E0
1.617290067E1,4.216050148E0,-9.090000391E-1,-8.620950699E0
1.619290067E1,4.216050148E0,-9.090000391E-1,-8.620950699E0
1.621290067E1,4.216050148E0,-9.090000391E-1,-8.620950699E0
1.623290067E1,4.216050148E0,-9.090000391E-1,-8.620950699E0
1.625290067E1,2.185950041E0,-3.207000256E0,-1.822950125E0
1.627290067E1,2.185950041E0,-3.207000256E0,-1.822950125E0
1.629290067E1,3.679950237E0,-2.040300179E1,-1.324950099E0
1.631290067E1,3.679950237E0,-2.040300179E1,-1.324950099E0
1.633290067E1,3.679950237E0,-2.040300179E1,-1.324950099E0
1.635290067E1,3.679950237E0,-2.040300179E1,-1.324950099E0
1.637290067E1,3.679950237E0,-2.040300179E1,-1.324950099E0
1.639290067E1,3.852000237E0,-1.999995041E1,-3.277950048E0
1.641290067E1,3.852000237E0,-1.999995041E1,-3.277950048E0
1.643290067E1,3.852000237E0,-1.999995041E1,-3.277950048E0
1.645290067E1,3.852000237E0,-1.999995041E1,-3.277950048E0
1.647290067E1,3.852000237E0,-1.999995041E1,-3.277950048E0
1.649290067E1,-2.830500007E-1,-1.006200027E1,-2.263050079E0
1.651290067E1,-2.830500007E-1,-1.006200027E1,-2.263050079E0
1.653290067E1,-2.830500007E-1,-1.006200027E1,-2.263050079E0
1.655290067E1,-2.830500007E-1,-1.006200027E1,-2.263050079E0
1.657290067E1,-2.830500007E-1,-1.006200027E1,-2.263050079E0
1.659290067E1,-2.830500007E-1,-1.006200027E1,-2.263050079E0
1.661290067E1,-2.830500007E-1,-1.006200027E1,-2.263050079E0
1.663290067E1,-5.760000229E0,7.180500627E-1,-3.546000242E0
1.665290067E1,-5.760000229E0,7.180500627E-1,-3.546000242E0
1.667290067E1,-5.760000229E0,7.180500627E-1,-3.546000242E0
1.669290067E1,-5.760000229E0,7.180500627E-1,-3.546000242E0
1.671290067E1,-5.760000229E0,7.180500627E-1,-3.546000242E0
1.673290067E1,4.101000309E0,-3.907305145E1,-6.361050129E0
1.675290067E1,4.101000309E0,-3.907305145E1,-6.361050129E0
1.677290067E1,4.101000309E0,-3.907305145E1,-6.361050129E0
1.679290067E1,4.101000309E0,-3.907305145E1,-6.361050129E0
1.681290067E1,4.101000309E0,-3.907305145E1,-6.361050129E0
1.683290067E1,7.318050385E0,-1.464000106E0,-4.504050255E0
1.685290067E1,7.318050385E0,-1.464000106E0,-4.504050255E0
1.687290067E1,7.528050423E0,7.687950134E0,-4.714050293E0
1.689290067E1,7.528050423E0,7.687950134E0,-4.714050293E0
1.691290067E1,7.528050423E0,7.687950134E0,-4.714050293E0
1.693290067E1,7.528050423E0,7.687950134E0,-4.714050293E0
1.695290067E1,7.528050423E0,7.687950134E0,-4.714050293E0
1.697290067E1,6.073050499E0,-1.622805023E1,1.719000101E0
1.699290067E1,6.073050499E0,-1.622805023E1,1.719000101E0
1.701290067E1,2.530950069E0,-3.907305145E1,9.148050308E0
1.703290067E1,2.530950069E0,-3.907305145E1,9.148050308E0
1.705290067E1,2.530950069E0,-3.907305145E1,9.148050308E0
1.707290067E1,1.438950062E0,-1.521300030E1,-1.630950093E0
1.709290067E1,1.438950062E0,-1.521300030E1,-1.630950093E0
1.711290067E1,-7.620000243E-1,-1.933005142E1,-3.277950048E0
1.713290067E1,-7.620000243E-1,-1.933005142E1,-3.277950048E0
1.715290067E1,-2.944950104E0,-2.269995117E1,-4.177950382E0
1.717290067E1,-2.944950104E0,-2.269995117E1,-4.177950382E0
1.719290067E1,-2.944950104E0,-2.269995117E1,-4.177950382E0
1.721290067E1,-2.944950104E0,-2.269995117E1,-4.177950382E0
1.723290067E1,-2.944950104E0,-2.269995117E1,-4.177950382E0
1.725290067E1,-2.944950104E0,-2.269995117E1,-4.177950382E0
1.727290067E1,-2.944950104E0,-2.269995117E1,-4.177950382E0
1.729290067E1,-2.944950104E0,-2.269995117E1,-4.177950382E0
1.731290067E1,-9.991950035E0,4.432950020E0,-8.080500364E-1
1.733290067E1,-9.991950035E0,4.432950020E0,-8.080500364E-1
1.735290067E1,4.050000310E-1,-1.062000036E0,6.142050266E0
1.737290067E1,4.050000310E-1,-1.062000036E0,6.142050266E0
1.739290067E1,4.050000310E-1,-1.062000036E0,6.142050266E0
1.741290067E1,4.050000310E-1,-1.062000036E0,6.142050266E0
1.743290067E1,4.050000310E-1,-1.062000036E0,6.142050266E0
1.745290067E1,2.989950180E0,-3.572205353E1,7.827000141E0
1.747290067E1,2.989950180E0,-3.572205353E1,7.827000141E0
1.749290067E1,1.803000093E0,-5.350950241E0,1.776000142E0
1.751290067E1,1.803000093E0,-5.350950241E0,1.776000142E0
1.753290067E1,1.803000093E0,-5.350950241E0,1.776000142E0
1.755290067E1,3.928050280E0,3.130950212E0,-4.465950012E0
1.757290067E1,3.928050280E0,3.130950212E0,-4.465950012E0
1.759290067E1,3.928050280E0,3.130950212E0,-4.465950012E0
1.761290067E1,3.928050280E0,3.130950212E0,-4.465950012E0
1.763290067E1,3.928050280E0,3.130950212E0,-4.465950012E0
1.765290067E1,3.928050280E0,3.130950212E0,-4.465950012E0
1.767290067E1,3.928050280E0,3.130950212E0,-4.465950012E0
1.769290067E1,6.730500460E-1,-2.204895020E1,-3.355050087E0
1.771290067E1,6.730500460E-1,-2.204895020E1,-3.355050087E0
1.773290067E1,6.730500460E-1,-2.204895020E1,-3.355050087E0
1.775290067E1,6.730500460E-1,-2.204895020E1,-3.355050087E0
1.777290067E1,6.730500460E-1,-2.204895020E1,-3.355050087E0
1.779290067E1,3.316050053E0,-1.232205105E1,4.303950310E0
1.781290067E1,3.316050053E0,-1.232205105E1,4.303950310E0
1.783290067E1,2.416050196E0,-5.064000130E0,-1.612050056E0
1.785290067E1,2.416050196E0,-5.064000130E0,-1.612050056E0
1.787290067E1,2.416050196E0,-5.064000130E0,-1.612050056E0
1.789290067E1,3.852000237E0,-7.764000416E0,-3.028950214E0
1.791290067E1,3.852000237E0,-7.764000416E0,-3.028950214E0
1.793290067E1,3.852000237E0,-7.764000416E0,-3.028950214E0
1.795290067E1,3.852000237E0,-7.764000416E0,-3.028950214E0
1.797290067E1,3.852000237E0,-7.764000416E0,-3.028950214E0
1.799290067E1,3.852000237E0,-7.764000416E0,-3.028950214E0
1.801290067E1,3.852000237E0,-7.764000416E0,-3.028950214E0
1.803290067E1,-6.469500065E-1,-9.928050041E0,-4.249500334E-1
1.805290067E1,-6.469500065E-1,-9.928050041E0,-4.249500334E-1
1.807290067E1,-1.048950076E0,-1.144095039E1,-3.546000242E0
1.809290067E1,-1.048950076E0,-1.144095039E1,-3.546000242E0
1.811290067E1,-1.048950076E0,-1.144095039E1,-3.546000242E0
1.813290067E1,-2.638950109E0,-1.255095100E1,-5.970000029E-1
1.815290067E1,-2.638950109E0,-1.255095100E1,-5.970000029E-1
1.817290067E1,-4.860000134E0,-1.191900063E1,1.431000113E0
1.819290067E1,-4.860000134E0,-1.191900063E1,1.431000113E0
1.821290067E1,-4.860000134E0,-1.191900063E1,1.431000113E0
1.823290067E1,-4.860000134E0,-1.191900063E1,1.431000113E0
1.825290067E1,-4.860000134E0,-1.191900063E1,1.431000113E0
1.827290067E1,9.807000160E0,-2.206800079E1,9.378000259E0
1.829290067E1,9.807000160E0,-2.206800079E1,9.378000259E0
1.831290067E1,9.807000160E0,-2.206800079E1,9.378000259E0
1.833290067E1,9.807000160E0,-2.206800079E1,9.378000259E0
1.835290067E1,9.807000160E0,-2.206800079E1,9.378000259E0
1.837290067E1,1.750500053E-1,-5.083050251E0,1.929000139E0
1.839290067E1,1.750500053E-1,-5.083050251E0,1.929000139E0
1.841290067E1,3.640950203E0,-2.709000111E0,-4.440000355E-1
1.843290067E1,3.640950203E0,-2.709000111E0,-4.440000355E-1
1.845290067E1,3.640950203E0,-2.709000111E0,-4.440000355E-1
1.847290067E1,3.640950203E0,-2.709000111E0,-4.440000355E-1
1.849290067E1,3.640950203E0,-2.709000111E0,-4.440000355E-1
1.851290067E1,2.760000229E0,-5.562000275E0,2.542050123E0
1.853290067E1,2.760000229E0,-5.562000275E0,2.542050123E0
1.855290067E1,-1.489950061E0,-1.184295082E1,-7.089000225E0
1.857290067E1,-1.489950061E0,-1.184295082E1,-7.089000225E0
1.859290067E1,-1.489950061E0,-1.184295082E1,-7.089000225E0
1.861290067E1,-2.830050230E0,-2.114895058E1,-8.506050110E0
1.863290067E1,-2.830050230E0,-2.114895058E1,-8.506050110E0
1.865290067E1,-2.830050230E0,-2.114895058E1,-8.506050110E0
1.867290067E1,-2.830050230E0,-2.114895058E1,-8.506050110E0
1.869290067E1,-2.830050230E0,-2.114895058E1,-8.506050110E0
1.871290067E1,-7.005000114E0,-8.338950157E0,-2.244000196E0
1.873290067E1,-7.005000114E0,-8.338950157E0,-2.244000196E0
1.875290067E1,4.809000015E0,-7.975050449E0,7.903950214E0
1.877290067E1,4.809000015E0,-7.975050449E0,7.903950214E0
1.879290067E1,4.809000015E0,-7.975050449E0,7.903950214E0
1.881290067E1,4.809000015E0,-7.975050449E0,7.903950214E0
1.883290067E1,4.809000015E0,-7.975050449E0,7.903950214E0
1.885290067E1,5.230950356E0,-6.615000248E0,-2.569950104E0
1.887290067E1,5.230950356E0,-6.615000248E0,-2.569950104E0
1.889290067E1,5.307000160E0,-8.970000267E0,2.250000089E-1
1.891290067E1,5.307000160E0,-8.970000267E0,2.250000089E-1
1.893290067E1,5.307000160E0,-8.970000267E0,2.250000089E-1
1.895290067E1,5.307000160E0,-8.970000267E0,2.250000089E-1
1.897290067E1,5.307000160E0,-8.970000267E0,2.250000089E-1
1.899290067E1,4.350000381E0,-9.105000496E0,-2.128950119E0
1.901290067E1,4.350000381E0,-9.105000496E0,-2.128950119E0
1.903290067E1,4.350000381E0,-9.105000496E0,-2.128950119E0
1.905290067E1,4.350000381E0,-9.105000496E0,-2.128950119E0
1.907290067E1,4.350000381E0,-9.105000496E0,-2.128950119E0
1.909290067E1,-2.275050163E0,-9.526050568E0,-3.393000126E0
1.911290067E1,-2.275050163E0,-9.526050568E0,-3.393000126E0
1.913290067E1,-2.275050163E0,-9.526050568E0,-3.393000126E0
1.915290067E1,-2.275050163E0,-9.526050568E0,-3.393000126E0
1.917290067E1,-2.275050163E0,-9.526050568E0,-3.393000126E0
1.919290067E1,-5.710500479E-1,-7.342950344E0,-2.320950031E0
1.921290067E1,-5.710500479E-1,-7.342950344E0,-2.320950031E0
1.923290067E1,-1.758000135E0,-1.057905006E1,1.290000081E-1
1.925290067E1,-1.758000135E0,-1.057905006E1,1.290000081E-1
1.927290067E1,-1.758000135E0,-1.057905006E1,1.290000081E-1
1.929290067E1,-1.758000135E0,-1.057905006E1,1.290000081E-1
1.931290067E1,-1.758000135E0,-1.057905006E1,1.290000081E-1
1.933290067E1,-7.429500222E-1,-1.197705078E1,5.223000050E0
1.935290067E1,-7.429500222E-1,-1.197705078E1,5.223000050E0
1.937290067E1,-7.429500222E-1,-1.197705078E1,5.223000050E0
1.939290067E1,-7.429500222E-1,-1.197705078E1,5.223000050E0
1.941290067E1,-7.429500222E-1,-1.197705078E1,5.223000050E0
1.943290067E1,1.362000108E0,-1.065600014E1,-8.460000157E-1
1.945290067E1,1.362000108E0,-1.065600014E1,-8.460000157E-1
1.947290067E1,1.362000108E0,-1.065600014E1,-8.460000157E-1
1.949290067E1,1.362000108E0,-1.065600014E1,-8.460000157E-1
1.951290067E1,1.362000108E0,-1.065600014E1,-8.460000157E-1
1.953290067E1,2.710500062E-1,-6.328050137E0,1.354950070E0
1.955290067E1,2.710500062E-1,-6.328050137E0,1.354950070E0
1.957290067E1,7.879500389E-1,-6.901950359E0,9.105000645E-2
1.959290067E1,7.879500389E-1,-6.901950359E0,9.105000645E-2
1.961290067E1,-4.750500321E-1,-6.462000370E0,-3.604050159E0
1.963290067E1,-4.750500321E-1,-6.462000370E0,-3.604050159E0
1.965290067E1,-4.750500321E-1,-6.462000370E0,-3.604050159E0
1.967290067E1,-5.989950180E0,-8.701950073E0,1.450950027E0
1.969290067E1,-5.989950180E0,-8.701950073E0,1.450950027E0
1.971290067E1,-6.813000202E0,-1.176600075E1,9.720000625E-1
1.973290067E1,-6.813000202E0,-1.176600075E1,9.720000625E-1
1.975290067E1,-6.813000202E0,-1.176600075E1,9.720000625E-1
1.977290067E1,-8.805000305E0,-1.429395103E1,5.605950356E0
1.979290067E1,-8.805000305E0,-1.429395103E1,5.605950356E0
1.981290067E1,-4.840950012E0,-9.717000008E0,3.019500077E-1
1.983290067E1,-4.840950012E0,-9.717000008E0,3.019500077E-1
1.985290067E1,-4.840950012E0,-9.717000008E0,3.019500077E-1
1.987290067E1,-4.840950012E0,-9.717000008E0,3.019500077E-1
1.989290067E1,-4.840950012E0,-9.717000008E0,3.019500077E-1
1.991290067E1,-4.840950012E0,-9.717000008E0,3.019500077E-1
1.993290067E1,-4.840950012E0,-9.717000008E0,3.019500077E-1
1.995290067E1,5.671050072E0,-7.150950432E0,-1.324950099E0
1.997290067E1,5.671050072E0,-7.150950432E0,-1.324950099E0
1.999290067E1,5.671050072E0,-7.150950432E0,-1.324950099E0
2.001290067E1,-5.899500251E-1,-9.295950890E0,2.962950230E0
2.003290067E1,-5.899500251E-1,-9.295950890E0,2.962950230E0
2.005290067E1,-1.500000060E-2,-8.797950745E0,9.340500236E-1
2.007290067E1,-1.500000060E-2,-8.797950745E0,9.340500236E-1
2.009290067E1,-2.179050207E0,-8.319000244E0,-1.267950058E0
2.011290067E1,-2.179050207E0,-8.319000244E0,-1.267950058E0
2.013290067E1,-2.179050207E0,-8.319000244E0,-1.267950058E0
2.015290067E1,-1.393950105E0,-1.038795090E1,-2.857050180E0
2.017290067E1,-1.393950105E0,-1.038795090E1,-2.857050180E0
2.019290067E1,-1.393950105E0,-1.038795090E1,-2.857050180E0
2.021290067E1,-1.393950105E0,-1.038795090E1,-2.857050180E0
2.023290067E1,-1.393950105E0,-1.038795090E1,-2.857050180E0
2.025290067E1,-5.130000114E-1,-1.496400070E1,3.780000210E-1
2.027290067E1,-5.130000114E-1,-1.496400070E1,3.780000210E-1
2.029290067E1,2.899500132E-1,-1.969395065E1,3.097050190E0
2.031290067E1,2.899500132E-1,-1.969395065E1,3.097050190E0
2.033290067E1,2.899500132E-1,-1.969395065E1,3.097050190E0
2.035290067E1,2.899500132E-1,-1.969395065E1,3.097050190E0
2.037290067E1,2.899500132E-1,-1.969395065E1,3.097050190E0
2.039290067E1,-9.054000854E0,-8.185050011E0,1.376295090E1
2.041290067E1,-9.054000854E0,-8.185050011E0,1.376295090E1
2.043290067E1,1.132950068E0,-7.860000610E0,-4.351050377E0
2.045290067E1,1.132950068E0,-7.860000610E0,-4.351050377E0
2.047290067E1,1.132950068E0,-7.860000610E0,-4.351050377E0
2.049290067E1,7.126050472E0,-2.277705193E1,-6.265950203E0
2.051290067E1,7.126050472E0,-2.277705193E1,-6.265950203E0
2.053290067E1,7.126050472E0,-2.277705193E1,-6.265950203E0
2.055290067E1,7.126050472E0,-2.277705193E1,-6.265950203E0
2.057290067E1,7.126050472E0,-2.277705193E1,-6.265950203E0
2.059290067E1,-6.277050495E0,-3.475050211E0,2.350995064E1
2.061290067E1,-6.277050495E0,-3.475050211E0,2.350995064E1
2.063290067E1,-5.400000140E-2,-3.934050083E0,-5.209500194E-1
2.065290067E1,-5.400000140E-2,-3.934050083E0,-5.209500194E-1
2.067290067E1,-5.400000140E-2,-3.934050083E0,-5.209500194E-1
2.069290067E1,-5.400000140E-2,-3.934050083E0,-5.209500194E-1
2.071290067E1,-5.400000140E-2,-3.934050083E0,-5.209500194E-1
2.073290067E1,-1.375050068E0,-1.159395027E1,-4.060500264E-1
2.075290067E1,-1.375050068E0,-1.159395027E1,-4.060500264E-1
2.077290067E1,-4.860000134E0,-1.264695072E1,-4.063050270E0
2.079290067E1,-4.860000134E0,-1.264695072E1,-4.063050270E0
2.081290067E1,-4.860000134E0,-1.264695072E1,-4.063050270E0
2.083290067E1,-6.469500065E-1,-6.730050087E0,2.101950169E0
2.085290067E1,-6.469500065E-1,-6.730050087E0,2.101950169E0
2.087290067E1,4.620000124E-1,-9.448950768E0,1.393050075E0
2.089290067E1,4.620000124E-1,-9.448950768E0,1.393050075E0
2.091290067E1,4.620000124E-1,-9.448950768E0,1.393050075E0
2.093290067E1,4.620000124E-1,-9.448950768E0,1.393050075E0
2.095290067E1,4.620000124E-1,-9.448950768E0,1.393050075E0
2.097290067E1,5.593950272E0,-1.078995037E1,-9.799500704E-1
2.099290067E1,5.593950272E0,-1.078995037E1,-9.799500704E-1
2.101290067E1,6.763050556E0,-1.921500015E1,3.589500189E-1
2.103290067E1,6.763050556E0,-1.921500015E1,3.589500189E-1
2.105290067E1,6.763050556E0,-1.921500015E1,3.589500189E-1
2.107290067E1,3.124050140E0,-1.760700035E1,1.756950140E0
2.109290067E1,3.124050140E0,-1.760700035E1,1.756950140E0
2.111290067E1,-1.279050112E0,-2.082405090E1,3.970500231E-1
2.113290067E1,-1.279050112E0,-2.082405090E1,3.970500231E-1
2.115290067E1,-3.864000082E0,-1.304895020E1,-3.297000170E0
2.117290067E1,-3.864000082E0,-1.304895020E1,-3.297000170E0
2.119290067E1,-3.864000082E0,-1.304895020E1,-3.297000170E0
2.121290067E1,-7.636950493E0,-3.091950178E0,-9.420000315E-1
2.123290067E1,-7.636950493E0,-3.091950178E0,-9.420000315E-1
2.125290067E1,-7.636950493E0,-3.091950178E0,-9.420000315E-1
2.127290067E1,-7.636950493E0,-3.091950178E0,-9.420000315E-1
2.129290067E1,-7.636950493E0,-3.091950178E0,-9.420000315E-1
2.131290067E1,-4.132050037E0,9.480000734E-1,1.336050034E0
2.133290067E1,-4.132050037E0,9.480000734E-1,1.336050034E0
2.135290067E1,-4.132050037E0,9.480000734E-1,1.336050034E0
2.137290067E1,-4.132050037E0,9.480000734E-1,1.336050034E0
2.139290067E1,-4.132050037E0,9.480000734E-1,1.336050034E0
2.141290067E1,-1.393950105E0,-3.907305145E1,-1.097595024E1
2.143290067E1,-1.393950105E0,-3.907305145E1,-1.097595024E1
2.145290067E1,1.707000136E0,-1.435095024E1,1.879995155E1
2.147290067E1,1.707000136E0,-1.435095024E1,1.879995155E1
2.149290067E1,1.707000136E0,-1.435095024E1,1.879995155E1
2.151290067E1,1.707000136E0,-1.435095024E1,1.879995155E1
2.153290067E1,1.707000136E0,-1.435095024E1,1.879995155E1
2.155290067E1,2.932950258E0,2.134950161E0,-9.598050117E0
2.157290067E1,2.932950258E0,2.134950161E0,-9.598050117E0
2.159290067E1,2.932950258E0,2.134950161E0,-9.598050117E0
2.161290067E1,2.932950258E0,2.134950161E0,-9.598050117E0
2.163290067E1,2.932950258E0,2.134950161E0,-9.598050117E0
2.165290067E1,1.840950131E0,-2.230050087E0,-1.267950058E0
2.167290067E1,1.840950131E0,-2.230050087E0,-1.267950058E0
2.169290067E1,3.238950253E0,-2.032605171E1,1.027800083E1
2.171290067E1,3.238950253E0,-2.032605171E1,1.027800083E1
2.173290067E1,3.238950253E0,-2.032605171E1,1.027800083E1
2.175290067E1,3.238950253E0,-2.032605171E1,1.027800083E1
2.177290067E1,3.238950253E0,-2.032605171E1,1.027800083E1
2.179290067E1,3.000000026E-3,-2.812005043E1,-2.340000153E0
2.181290067E1,3.000000026E-3,-2.812005043E1,-2.340000153E0
2.183290067E1,-8.077050209E0,-1.890900040E1,-1.384905052E1
2.185290067E1,-8.077050209E0,-1.890900040E1,-1.384905052E1
2.187290067E1,-8.077050209E0,-1.890900040E1,-1.384905052E1
2.189290067E1,-1.104495049E1,-3.915000200E0,-8.104050636E0
2.191290067E1,-1.104495049E1,-3.915000200E0,-8.104050636E0
2.193290067E1,-1.104495049E1,-3.915000200E0,-8.104050636E0
2.195290067E1,-1.104495049E1,-3.915000200E0,-8.104050636E0
2.197290067E1,-1.104495049E1,-3.915000200E0,-8.104050636E0
2.199290067E1,-1.104495049E1,-3.915000200E0,-8.104050636E0
2.201290067E1,-1.104495049E1,-3.915000200E0,-8.104050636E0
2.203290067E1,-1.509000063E0,-3.301950216E0,-5.779500008E-1
2.205290067E1,-1.509000063E0,-3.301950216E0,-5.779500008E-1
2.207290067E1,-1.509000063E0,-3.301950216E0,-5.779500008E-1
2.209290067E1,-1.509000063E0,-3.301950216E0,-5.779500008E-1
2.211290067E1,-1.509000063E0,-3.301950216E0,-5.779500008E-1
2.213290067E1,3.391950130E0,-3.371100235E1,-1.497000098E0
2.215290067E1,3.391950130E0,-3.371100235E1,-1.497000098E0
2.217290067E1,5.038950443E0,-1.311000109E0,2.178705025E1
2.219290067E1,5.038950443E0,-1.311000109E0,2.178705025E1
2.221290067E1,5.038950443E0,-1.311000109E0,2.178705025E1
2.223290067E1,5.038950443E0,-1.311000109E0,2.178705025E1
2.225290067E1,5.038950443E0,-1.311000109E0,2.178705025E1
2.227290067E1,6.303000450E0,5.199000359E0,-6.993000507E0
2.229290067E1,6.303000450E0,5.199000359E0,-6.993000507E0
2.231290067E1,6.303000450E0,5.199000359E0,-6.993000507E0
2.233290067E1,6.303000450E0,5.199000359E0,-6.993000507E0
2.235290067E1,6.303000450E0,5.199000359E0,-6.993000507E0
2.237290067E1,2.089950085E0,-1.347105026E1,1.395000052E-2
2.239290067E1,2.089950085E0,-1.347105026E1,1.395000052E-2
2.241290067E1,9.409500360E-1,-3.495600128E1,1.112100029E1
2.243290067E1,9.409500360E-1,-3.495600128E1,1.112100029E1
2.245290067E1,9.409500360E-1,-3.495600128E1,1.112100029E1
2.247290067E1,-9.195000678E-2,-3.112605095E1,-2.704050064E0
2.249290067E1,-9.195000678E-2,-3.112605095E1,-2.704050064E0
2.251290067E1,-1.873050094E0,-2.407905197E1,-5.155050278E0
2.253290067E1,-1.873050094E0,-2.407905197E1,-5.155050278E0
2.255290067E1,-6.603000164E0,-1.291500092E1,-5.404050350E0
2.257290067E1,-6.603000164E0,-1.291500092E1,-5.404050350E0
2.259290067E1,-6.603000164E0,-1.291500092E1,-5.404050350E0
2.261290067E1,-1.029795074E1,-1.039500013E-1,-5.365950108E0
2.263290067E1,-1.029795074E1,-1.039500013E-1,-5.365950108E0
2.265290067E1,-1.029795074E1,-1.039500013E-1,-5.365950108E0
2.267290067E1,-1.029795074E1,-1.039500013E-1,-5.365950108E0
2.269290067E1,-1.029795074E1,-1.039500013E-1,-5.365950108E0
2.271290067E1,-1.720050097E0,2.632950068E0,8.113950729E0
2.273290067E1,-1.720050097E0,2.632950068E0,8.113950729E0
2.275290067E1,-2.070000172E-1,-9.660000801E0,-1.842000127E0
2.277290067E1,-2.070000172E-1,-9.660000801E0,-1.842000127E0
2.279290067E1,-2.070000172E-1,-9.660000801E0,-1.842000127E0
2.281290067E1,-2.070000172E-1,-9.660000801E0,-1.842000127E0
2.283290067E1,-2.070000172E-1,-9.660000801E0,-1.842000127E0
2.285290067E1,9.030000567E-1,-1.703205109E1,5.413950443E0
2.287290067E1,9.030000567E-1,-1.703205109E1,5.413950443E0
2.289290067E1,3.280500174E-1,-1.426050067E0,2.656950235E0
2.291290067E1,3.280500174E-1,-1.426050067E0,2.656950235E0
2.293290067E1,3.280500174E-1,-1.426050067E0,2.656950235E0
2.295290067E1,3.280500174E-1,-1.426050067E0,2.656950235E0
2.297290067E1,3.280500174E-1,-1.426050067E0,2.656950235E0
2.299290067E1,3.280500174E-1,-1.426050067E0,2.656950235E0
2.301290067E1,3.280500174E-1,-1.426050067E0,2.656950235E0
2.303290067E1,3.280500174E-1,-1.426050067E0,2.656950235E0
2.305290067E1,3.280500174E-1,-1.426050067E0,2.656950235E0
2.307290067E1,3.280500174E-1,-1.426050067E0,2.656950235E0
2.309290067E1,3.603000164E0,-1.682205009E1,-6.930000186E-1
2.311290067E1,3.603000164E0,-1.682205009E1,-6.930000186E-1
2.313290067E1,3.603000164E0,-1.682205009E1,-6.930000186E-1
2.315290067E1,3.603000164E0,-1.682205009E1,-6.930000186E-1
2.317290067E1,3.603000164E0,-1.682205009E1,-6.930000186E-1
2.319290067E1,4.429500103E-1,-2.798595047E1,-2.569950104E0
2.321290067E1,4.429500103E-1,-2.798595047E1,-2.569950104E0
2.323290067E1,-2.236950159E0,-2.430900192E1,-4.408050060E0
2.325290067E1,-2.236950159E0,-2.430900192E1,-4.408050060E0
2.327290067E1,-2.236950159E0,-2.430900192E1,-4.408050060E0
2.329290067E1,-8.613000870E0,-1.084695053E1,-1.022895050E1
2.331290067E1,-8.613000870E0,-1.084695053E1,-1.022895050E1
2.333290067E1,-1.554495049E1,-7.750500441E-1,-9.769950867E0
2.335290067E1,-1.554495049E1,-7.750500441E-1,-9.769950867E0
2.337290067E1,-1.554495049E1,-7.750500441E-1,-9.769950867E0
2.339290067E1,-1.554495049E1,-7.750500441E-1,-9.769950867E0
2.341290067E1,-1.554495049E1,-7.750500441E-1,-9.769950867E0
2.343290067E1,-2.371050119E0,1.387950063E0,1.294005108E1
2.345290067E1,-2.371050119E0,1.387950063E0,1.294005108E1
2.347290067E1,-3.309000254E0,-9.277050018E0,3.097050190E0
2.349290067E1,-3.309000254E0,-9.277050018E0,3.097050190E0
2.351290067E1,-3.309000254E0,-9.277050018E0,3.097050190E0
2.353290067E1,2.185950041E0,-3.907305145E1,-1.465305042E1
2.355290067E1,2.185950041E0,-3.907305145E1,-1.465305042E1
2.357290067E1,5.970000029E-1,-2.352405167E1,3.780000210E-1
2.359290067E1,5.970000029E-1,-2.352405167E1,3.780000210E-1
2.361290067E1,-9.195000678E-2,-5.830500126E-1,3.769995117E1
2.363290067E1,-9.195000678E-2,-5.830500126E-1,3.769995117E1
2.365290067E1,-9.195000678E-2,-5.830500126E-1,3.769995117E1
2.367290067E1,1.336905098E1,2.728950024E0,-5.269950390E0
2.369290067E1,1.336905098E1,2.728950024E0,-5.269950390E0
2.371290067E1,1.336905098E1,2.728950024E0,-5.269950390E0
2.373290067E1,1.336905098E1,2.728950024E0,-5.269950390E0
2.375290067E1,1.336905098E1,2.728950024E0,-5.269950390E0
2.377290067E1,3.238950253E0,-3.283050060E0,-3.106050253E0
2.379290067E1,3.238950253E0,-3.283050060E0,-3.106050253E0
2.381290067E1,3.334950209E0,-2.296800041E1,6.870000362E0
2.383290067E1,3.334950209E0,-2.296800041E1,6.870000362E0
2.385290067E1,3.334950209E0,-2.296800041E1,6.870000362E0
2.387290067E1,3.334950209E0,-2.296800041E1,6.870000362E0
2.389290067E1,3.334950209E0,-2.296800041E1,6.870000362E0
2.391290067E1,3.334950209E0,-2.296800041E1,6.870000362E0
2.393290067E1,3.334950209E0,-2.296800041E1,6.870000362E0
2.395290067E1,6.349500418E-1,-1.387305069E1,-2.224950075E0
2.397290067E1,6.349500418E-1,-1.387305069E1,-2.224950075E0
2.399290067E1,6.349500418E-1,-1.387305069E1,-2.224950075E0
2.401290067E1,6.349500418E-1,-1.387305069E1,-2.224950075E0
2.403290067E1,6.349500418E-1,-1.387305069E1,-2.224950075E0
2.405290067E1,6.349500418E-1,-1.387305069E1,-2.224950075E0
2.407290067E1,6.349500418E-1,-1.387305069E1,-2.224950075E0
2.409290067E1,6.349500418E-1,-1.387305069E1,-2.224950075E0
2.411290067E1,6.349500418E-1,-1.387305069E1,-2.224950075E0
2.413290067E1,6.349500418E-1,-1.387305069E1,-2.224950075E0
2.415290067E1,-9.475050926E0,-7.939500213E-1,-4.351050377E0
2.417290067E1,-9.475050926E0,-7.939500213E-1,-4.351050377E0
2.419290067E1,-9.475050926E0,-7.939500213E-1,-4.351050377E0
2.421290067E1,-9.475050926E0,-7.939500213E-1,-4.351050377E0
2.423290067E1,-9.475050926E0,-7.939500213E-1,-4.351050377E0
2.425290067E1,-1.758000135E0,-1.912005043E1,4.323000431E0
2.427290067E1,-1.758000135E0,-1.912005043E1,4.323000431E0
2.429290067E1,1.124295044E1,-3.907305145E1,3.097050190E0
2.431290067E1,1.124295044E1,-3.907305145E1,3.097050190E0
2.433290067E1,1.124295044E1,-3.907305145E1,3.097050190E0
2.435290067E1,1.554000020E0,-5.773050308E0,7.080000401E0
2.437290067E1,1.554000020E0,-5.773050308E0,7.080000401E0
2.439290067E1,4.042950153E0,1.630500108E-1,-9.420000315E-1
2.441290067E1,4.042950153E0,1.630500108E-1,-9.420000315E-1
2.443290067E1,4.042950153E0,1.630500108E-1,-9.420000315E-1
2.445290067E1,4.042950153E0,1.630500108E-1,-9.420000315E-1
2.447290067E1,4.042950153E0,1.630500108E-1,-9.420000315E-1
2.449290067E1,2.416050196E0,-1.999500096E-1,-3.049050093E0
2.451290067E1,2.416050196E0,-1.999500096E-1,-3.049050093E0
2.453290067E1,1.477050066E0,-6.826050282E0,-2.838000059E0
2.455290067E1,1.477050066E0,-6.826050282E0,-2.838000059E0
2.457290067E1,1.477050066E0,-6.826050282E0,-2.838000059E0
2.459290067E1,-2.217000008E0,-2.226000023E1,-6.438000202E0
2.461290067E1,-2.217000008E0,-2.226000023E1,-6.438000202E0
2.463290067E1,-9.919500351E-1,-3.643004990E1,-6.169500351E-1
2.465290067E1,-9.919500351E-1,-3.643004990E1,-6.169500351E-1
2.467290067E1,-9.919500351E-1,-3.643004990E1,-6.169500351E-1
2.469290067E1,-9.919500351E-1,-3.643004990E1,-6.169500351E-1
2.471290067E1,-9.919500351E-1,-3.643004990E1,-6.169500351E-1
2.473290067E1,1.197105026E1,-8.932050705E0,-1.057395077E1
2.475290067E1,1.197105026E1,-8.932050705E0,-1.057395077E1
2.477290067E1,1.197105026E1,-8.932050705E0,-1.057395077E1
2.479290067E1,1.197105026E1,-8.932050705E0,-1.057395077E1
2.481290067E1,1.197105026E1,-8.932050705E0,-1.057395077E1
2.483290067E1,3.793950081E0,-4.144950390E0,-2.910000086E-1
2.485290067E1,3.793950081E0,-4.144950390E0,-2.910000086E-1
2.487290067E1,-3.790500164E-1,-1.109595013E1,3.058950186E0
2.489290067E1,-3.790500164E-1,-1.109595013E1,3.058950186E0
2.491290067E1,-3.790500164E-1,-1.109595013E1,3.058950186E0
2.493290067E1,-3.790500164E-1,-1.109595013E1,3.058950186E0
2.495290067E1,-3.790500164E-1,-1.109595013E1,3.058950186E0
2.497290067E1,-2.260500044E-1,-1.224495029E1,-1.024905014E1
2.499290067E1,-2.260500044E-1,-1.224495029E1,-1.024905014E1
2.501290067E1,-9.919500351E-1,-8.664000511E0,-4.351050377E0
2.503290067E1,-9.919500351E-1,-8.664000511E0,-4.351050377E0
2.505290067E1,-9.919500351E-1,-8.664000511E0,-4.351050377E0
2.507290067E1,-2.791950226E0,-1.113405037E1,-2.608050108E0
2.509290067E1,-2.791950226E0,-1.113405037E1,-2.608050108E0
2.511290067E1,-2.026050091E0,-1.119195080E1,1.068000078E0
2.513290067E1,-2.026050091E0,-1.119195080E1,1.068000078E0
2.515290067E1,-2.026050091E0,-1.119195080E1,1.068000078E0
2.517290067E1,2.952000141E0,-1.938795090E1,1.960395050E1
2.519290067E1,2.952000141E0,-1.938795090E1,1.960395050E1
2.521290067E1,5.250000477E0,-1.615095139E1,4.323000431E0
2.523290067E1,5.250000477E0,-1.615095139E1,4.323000431E0
2.525290067E1,5.250000477E0,-1.615095139E1,4.323000431E0
2.527290067E1,5.250000477E0,-1.615095139E1,4.323000431E0
2.529290067E1,5.250000477E0,-1.615095139E1,4.323000431E0
2.531290067E1,3.162000179E0,-6.289950371E0,2.560950041E0
2.533290067E1,3.162000179E0,-6.289950371E0,2.560950041E0
2.535290067E1,3.756000280E0,-6.691950321E0,-4.830000103E-1
2.537290067E1,3.756000280E0,-6.691950321E0,-4.830000103E-1
2.539290067E1,3.756000280E0,-6.691950321E0,-4.830000103E-1
2.541290067E1,3.871050119E0,-6.481050491E0,-3.124950171E0
2.543290067E1,3.871050119E0,-6.481050491E0,-3.124950171E0
2.545290067E1,2.052000046E0,-8.109000206E0,-2.818950176E0
2.547290067E1,2.052000046E0,-8.109000206E0,-2.818950176E0
2.549290067E1,2.052000046E0,-8.109000206E0,-2.818950176E0
2.551290067E1,2.052000046E0,-8.109000206E0,-2.818950176E0
2.553290067E1,2.052000046E0,-8.109000206E0,-2.818950176E0
2.555290067E1,-5.760000229E0,-1.980900002E1,-3.949050188E0
2.557290067E1,-5.760000229E0,-1.980900002E1,-3.949050188E0
2.559290067E1,-5.760000229E0,-1.980900002E1,-3.949050188E0
2.561290067E1,-5.760000229E0,-1.980900002E1,-3.949050188E0
2.563290067E1,-5.760000229E0,-1.980900002E1,-3.949050188E0
2.565290067E1,-1.011000037E0,-7.438950539E0,3.538050175E0
2.567290067E1,-1.011000037E0,-7.438950539E0,3.538050175E0
2.569290067E1,3.105000257E0,-9.487950325E0,1.258950114E0
2.571290067E1,3.105000257E0,-9.487950325E0,1.258950114E0
2.573290067E1,3.105000257E0,-9.487950325E0,1.258950114E0
2.575290067E1,3.105000257E0,-9.487950325E0,1.258950114E0
2.577290067E1,3.105000257E0,-9.487950325E0,1.258950114E0
2.579290067E1,5.824050426E0,-1.044495010E1,-9.040500522E-1
2.581290067E1,5.824050426E0,-1.044495010E1,-9.040500522E-1
2.583290067E1,5.824050426E0,-1.044495010E1,-9.040500522E-1
2.585290067E1,5.824050426E0,-1.044495010E1,-9.040500522E-1
2.587290067E1,5.824050426E0,-1.044495010E1,-9.040500522E-1
2.589290067E1,8.179950714E0,-1.236000061E1,1.738050103E0
2.591290067E1,8.179950714E0,-1.236000061E1,1.738050103E0
2.593290067E1,8.179950714E0,-1.236000061E1,1.738050103E0
2.595290067E1,8.179950714E0,-1.236000061E1,1.738050103E0
2.597290067E1,8.179950714E0,-1.236000061E1,1.738050103E0
2.599290067E1,8.179950714E0,-1.236000061E1,1.738050103E0
2.601290067E1,8.179950714E0,-1.236000061E1,1.738050103E0
2.603290067E1,3.859500289E-1,-1.276200104E1,-2.014050007E0
2.605290067E1,3.859500289E-1,-1.276200104E1,-2.014050007E0
2.607290067E1,3.859500289E-1,-1.276200104E1,-2.014050007E0
2.609290067E1,3.859500289E-1,-1.276200104E1,-2.014050007E0
2.611290067E1,3.859500289E-1,-1.276200104E1,-2.014050007E0
2.613290067E1,-9.195000678E-2,-7.477050304E0,-1.726950049E0
2.615290067E1,-9.195000678E-2,-7.477050304E0,-1.726950049E0
2.617290067E1,9.220500588E-1,-9.736050606E0,-1.153050065E0
2.619290067E1,9.220500588E-1,-9.736050606E0,-1.153050065E0
2.621290067E1,9.220500588E-1,-9.736050606E0,-1.153050065E0
2.623290067E1,1.248000026E0,-1.387305069E1,-4.200000316E-2
2.625290067E1,1.248000026E0,-1.387305069E1,-4.200000316E-2
2.627290067E1,1.248000026E0,-1.387305069E1,-4.200000316E-2
2.629290067E1,1.248000026E0,-1.387305069E1,-4.200000316E-2
2.631290067E1,1.248000026E0,-1.387305069E1,-4.200000316E-2
2.633290067E1,1.248000026E0,-1.387305069E1,-4.200000316E-2
2.635290067E1,1.248000026E0,-1.387305069E1,-4.200000316E-2
2.637290067E1,1.516050100E0,-9.046950340E0,-2.875950098E0
2.639290067E1,1.516050100E0,-9.046950340E0,-2.875950098E0
2.641290067E1,4.330950260E0,-1.216800022E1,-4.830000103E-1
2.643290067E1,4.330950260E0,-1.216800022E1,-4.830000103E-1
2.645290067E1,4.330950260E0,-1.216800022E1,-4.830000103E-1
2.647290067E1,3.277050257E0,-1.498305035E1,9.340500236E-1
2.649290067E1,3.277050257E0,-1.498305035E1,9.340500236E-1
2.651290067E1,2.281949997E0,-8.166000366E0,1.527000070E0
2.653290067E1,2.281949997E0,-8.166000366E0,1.527000070E0
2.655290067E1,2.281949997E0,-8.166000366E0,1.527000070E0
2.657290067E1,2.281949997E0,-8.166000366E0,1.527000070E0
2.659290067E1,2.281949997E0,-8.166000366E0,1.527000070E0
2.661290067E1,2.281949997E0,-8.166000366E0,1.527000070E0
2.663290067E1,2.281949997E0,-8.166000366E0,1.527000070E0
2.665290067E1,2.281949997E0,-8.166000366E0,1.527000070E0
2.667290067E1,2.281949997E0,-8.166000366E0,1.527000070E0
2.669290067E1,2.281949997E0,-8.166000366E0,1.527000070E0
2.671290067E1,1.036949992E0,-6.097950459E0,2.427000046E0
2.673290067E1,1.036949992E0,-6.097950459E0,2.427000046E0
2.675290067E1,1.822050095E0,-9.448950768E0,1.585050106E0
2.677290067E1,1.822050095E0,-9.448950768E0,1.585050106E0
2.679290067E1,1.822050095E0,-9.448950768E0,1.585050106E0
2.681290067E1,1.822050095E0,-9.448950768E0,1.585050106E0
2.683290067E1,1.822050095E0,-9.448950768E0,1.585050106E0
2.685290067E1,-6.448950291E0,-1.632405090E1,-8.257050514E0
2.687290067E1,-6.448950291E0,-1.632405090E1,-8.257050514E0
2.689290067E1,1.381950021E0,-1.052205086E1,-1.248900032E1
2.691290067E1,1.381950021E0,-1.052205086E1,-1.248900032E1
2.693290067E1,1.381950021E0,-1.052205086E1,-1.248900032E1
2.695290067E1,1.381950021E0,-1.052205086E1,-1.248900032E1
2.697290067E1,1.381950021E0,-1.052205086E1,-1.248900032E1
2.699290067E1,1.381950021E0,-1.052205086E1,-1.248900032E1
2.701290067E1,1.381950021E0,-1.052205086E1,-1.248900032E1
2.703290067E1,1.381950021E0,-1.052205086E1,-1.248900032E1
2.705290067E1,5.958000183E0,-7.668000221E0,-4.638000011E0
2.707290067E1,5.958000183E0,-7.668000221E0,-4.638000011E0
2.709290067E1,3.565050125E0,-7.552950382E0,-4.446000099E0
2.711290067E1,3.565050125E0,-7.552950382E0,-4.446000099E0
2.713290067E1,3.565050125E0,-7.552950382E0,-4.446000099E0
2.715290067E1,3.565050125E0,-7.552950382E0,-4.446000099E0
2.717290067E1,3.565050125E0,-7.552950382E0,-4.446000099E0
2.719290067E1,1.956000090E0,-1.029195023E1,1.221000075E0
2.721290067E1,1.956000090E0,-1.029195023E1,1.221000075E0
2.723290067E1,-4.560000300E-1,-1.033005047E1,1.431000113E0
2.725290067E1,-4.560000300E-1,-1.033005047E1,1.431000113E0
2.727290067E1,-4.560000300E-1,-1.033005047E1,1.431000113E0
2.729290067E1,6.730500460E-1,-1.218795013E1,-5.251050472E0
2.731290067E1,6.730500460E-1,-1.218795013E1,-5.251050472E0
2.733290067E1,6.730500460E-1,-1.218795013E1,-5.251050472E0
2.735290067E1,6.730500460E-1,-1.218795013E1,-5.251050472E0
2.737290067E1,6.730500460E-1,-1.218795013E1,-5.251050472E0
2.739290067E1,6.730500460E-1,-1.218795013E1,-5.251050472E0
2.741290067E1,6.730500460E-1,-1.218795013E1,-5.251050472E0
2.743290067E1,-5.415000439E0,-8.511000633E0,6.793050289E0
2.745290067E1,-5.415000439E0,-8.511000633E0,6.793050289E0
2.747290067E1,4.350000381E0,-2.283405113E1,4.930500090E-1
2.749290067E1,4.350000381E0,-2.283405113E1,4.930500090E-1
2.751290067E1,4.350000381E0,-2.283405113E1,4.930500090E-1
2.753290067E1,5.191950321E0,-2.226000023E1,4.513950348E0
2.755290067E1,5.191950321E0,-2.226000023E1,4.513950348E0
2.757290067E1,3.048000097E0,-7.726050377E0,5.817000389E0
2.759290067E1,3.048000097E0,-7.726050377E0,5.817000389E0
2.761290067E1,3.048000097E0,-7.726050377E0,5.817000389E0
2.763290067E1,3.048000097E0,-7.726050377E0,5.817000389E0
2.765290067E1,3.048000097E0,-7.726050377E0,5.817000389E0
2.767290067E1,3.909000158E0,-1.330050111E0,-9.420000315E-1
2.769290067E1,3.909000158E0,-1.330050111E0,-9.420000315E-1
2.771290067E1,3.909000158E0,-1.330050111E0,-9.420000315E-1
2.773290067E1,3.909000158E0,-1.330050111E0,-9.420000315E-1
2.775290067E1,3.909000158E0,-1.330050111E0,-9.420000315E-1
2.777290067E1,1.477050066E0,-1.128795052E1,8.229000092E0
2.779290067E1,1.477050066E0,-1.128795052E1,8.229000092E0
2.781290067E1,-5.548950195E0,-2.109195137E1,-6.342000484E0
2.783290067E1,-5.548950195E0,-2.109195137E1,-6.342000484E0
2.785290067E1,-5.548950195E0,-2.109195137E1,-6.342000484E0
2.787290067E1,-5.548950195E0,-2.109195137E1,-6.342000484E0
2.789290067E1,-5.548950195E0,-2.109195137E1,-6.342000484E0
2.791290067E1,-3.844950199E0,-1.023405075E1,3.270000219E0
2.793290067E1,-3.844950199E0,-1.023405075E1,3.270000219E0
2.795290067E1,-3.844950199E0,-1.023405075E1,3.270000219E0
2.797290067E1,-3.844950199E0,-1.023405075E1,3.270000219E0
2.799290067E1,-3.844950199E0,-1.023405075E1,3.270000219E0
2.801290067E1,3.699000120E0,-1.228305054E1,7.800000310E-1
2.803290067E1,3.699000120E0,-1.228305054E1,7.800000310E-1
2.805290067E1,3.699000120E0,-1.228305054E1,7.800000310E-1
2.807290067E1,3.699000120E0,-1.228305054E1,7.800000310E-1
2.809290067E1,3.699000120E0,-1.228305054E1,7.800000310E-1
2.811290067E1,1.130100060E1,-8.932050705E0,-3.834000111E0
2.813290067E1,1.130100060E1,-8.932050705E0,-3.834000111E0
2.815290067E1,5.977050304E0,-3.570000172E0,1.099500060E-1
2.817290067E1,5.977050304E0,-3.570000172E0,1.099500060E-1
2.819290067E1,5.977050304E0,-3.570000172E0,1.099500060E-1
2.821290067E1,5.977050304E0,-3.570000172E0,1.099500060E-1
2.823290067E1,5.977050304E0,-3.570000172E0,1.099500060E-1
2.825290067E1,-5.130000114E-1,-1.490700054E1,1.393050075E0
2.827290067E1,-5.130000114E-1,-1.490700054E1,1.393050075E0
2.829290067E1,2.710500062E-1,-1.381500053E1,-4.753050327E0
2.831290067E1,2.710500062E-1,-1.381500053E1,-4.753050327E0
2.833290067E1,2.710500062E-1,-1.381500053E1,-4.753050327E0
2.835290067E1,3.090000153E-1,-1.174695015E1,-8.085000038E0
2.837290067E1,3.090000153E-1,-1.174695015E1,-8.085000038E0
2.839290067E1,-2.926050186E0,-9.985050201E0,-4.753050327E0
2.841290067E1,-2.926050186E0,-9.985050201E0,-4.753050327E0
2.843290067E1,-2.926050186E0,-9.985050201E0,-4.753050327E0
2.845290067E1,-2.926050186E0,-9.985050201E0,-4.753050327E0
2.847290067E1,-2.926050186E0,-9.985050201E0,-4.753050327E0
2.849290067E1,-5.899500251E-1,-2.396400070E1,4.572000027E0
2.851290067E1,-5.899500251E-1,-2.396400070E1,4.572000027E0
2.853290067E1,-5.899500251E-1,-2.396400070E1,4.572000027E0
2.855290067E1,-5.899500251E-1,-2.396400070E1,4.572000027E0
2.857290067E1,-5.899500251E-1,-2.396400070E1,4.572000027E0
2.859290067E1,4.240500331E-1,-5.773050308E0,9.742050171E0
2.861290067E1,4.240500331E-1,-5.773050308E0,9.742050171E0
2.863290067E1,3.220050097E0,-4.297950268E0,-1.134000063E0
2.865290067E1,3.220050097E0,-4.297950268E0,-1.134000063E0
2.867290067E1,3.220050097E0,-4.297950268E0,-1.134000063E0
2.869290067E1,3.220050097E0,-4.297950268E0,-1.134000063E0
2.871290067E1,3.220050097E0,-4.297950268E0,-1.134000063E0
2.873290067E1,6.091950417E0,-2.766000032E0,-4.734000206E0
2.875290067E1,6.091950417E0,-2.766000032E0,-4.734000206E0
2.877290067E1,6.091950417E0,-2.766000032E0,-4.734000206E0
2.879290067E1,6.091950417E0,-2.766000032E0,-4.734000206E0
2.881290067E1,6.091950417E0,-2.766000032E0,-4.734000206E0
2.883290067E1,-3.346950054E0,-2.453895187E1,-2.473950148E0
2.885290067E1,-3.346950054E0,-2.453895187E1,-2.473950148E0
2.887290067E1,-3.346950054E0,-2.453895187E1,-2.473950148E0
2.889290067E1,-3.346950054E0,-2.453895187E1,-2.473950148E0
2.891290067E1,-3.346950054E0,-2.453895187E1,-2.473950148E0
2.893290067E1,1.707000136E0,-5.236050129E0,5.911950111E0
2.895290067E1,1.707000136E0,-5.236050129E0,5.911950111E0
2.897290067E1,3.085950136E0,-9.889950752E0,7.609500289E-1
2.899290067E1,3.085950136E0,-9.889950752E0,7.609500289E-1
2.901290067E1,3.085950136E0,-9.889950752E0,7.609500289E-1
2.903290067E1,3.085950136E0,-9.889950752E0,7.609500289E-1
2.905290067E1,3.085950136E0,-9.889950752E0,7.609500289E-1
2.907290067E1,1.051605034E1,-8.166000366E0,-4.200000316E-2
2.909290067E1,1.051605034E1,-8.166000366E0,-4.200000316E-2
2.911290067E1,1.051605034E1,-8.166000366E0,-4.200000316E-2
2.913290067E1,1.051605034E1,-8.166000366E0,-4.200000316E-2
2.915290067E1,1.051605034E1,-8.166000366E0,-4.200000316E-2
2.917290067E1,5.556000233E0,-1.272405052E1,-1.171950102E0
2.919290067E1,5.556000233E0,-1.272405052E1,-1.171950102E0
2.921290067E1,2.140500098E-1,-1.829594994E1,-1.045905018E1
2.923290067E1,2.140500098E-1,-1.829594994E1,-1.045905018E1
2.925290067E1,2.140500098E-1,-1.829594994E1,-1.045905018E1
2.927290067E1,2.140500098E-1,-1.829594994E1,-1.045905018E1
2.929290067E1,2.140500098E-1,-1.829594994E1,-1.045905018E1
2.931290067E1,2.140500098E-1,-1.829594994E1,-1.045905018E1
2.933290067E1,2.140500098E-1,-1.829594994E1,-1.045905018E1
2.935290067E1,2.140500098E-1,-1.829594994E1,-1.045905018E1
2.937290067E1,2.140500098E-1,-1.829594994E1,-1.045905018E1
2.939290067E1,2.140500098E-1,-1.829594994E1,-1.045905018E1
2.941290067E1,-6.660000086E-1,-2.369595146E1,9.856950760E0
2.943290067E1,-6.660000086E-1,-2.369595146E1,9.856950760E0
2.945290067E1,3.718050241E0,-2.406000137E1,1.190595055E1
2.947290067E1,3.718050241E0,-2.406000137E1,1.190595055E1
2.949290067E1,3.718050241E0,-2.406000137E1,1.190595055E1
2.951290067E1,3.718050241E0,-2.406000137E1,1.190595055E1
2.953290067E1,3.718050241E0,-2.406000137E1,1.190595055E1
2.955290067E1,2.550000191E0,-5.428050041E0,-9.040500522E-1
2.957290067E1,2.550000191E0,-5.428050041E0,-9.040500522E-1
2.959290067E1,2.550000191E0,-5.428050041E0,-9.040500522E-1
2.961290067E1,2.550000191E0,-5.428050041E0,-9.040500522E-1
2.963290067E1,2.550000191E0,-5.428050041E0,-9.040500522E-1
2.965290067E1,2.550000191E0,-5.428050041E0,-9.040500522E-1
2.967290067E1,2.550000191E0,-5.428050041E0,-9.040500522E-1
2.969290067E1,2.550000191E0,-5.428050041E0,-9.040500522E-1
2.971290067E1,2.550000191E0,-5.428050041E0,-9.040500522E-1
2.973290067E1,2.550000191E0,-5.428050041E0,-9.040500522E-1
2.975290067E1,2.550000191E0,-5.428050041E0,-9.040500522E-1
2.977290067E1,2.550000191E0,-5.428050041E0,-9.040500522E-1
2.979290067E1,-6.085950375E0,-1.272405052E1,-7.587000370E0
2.981290067E1,-6.085950375E0,-1.272405052E1,-7.587000370E0
2.983290067E1,-1.201950073E0,-7.860000610E0,6.793050289E0
2.985290067E1,-1.201950073E0,-7.860000610E0,6.793050289E0
2.987290067E1,-1.201950073E0,-7.860000610E0,6.793050289E0
2.989290067E1,2.856000185E0,-1.636200142E1,6.391050339E0
2.991290067E1,2.856000185E0,-1.636200142E1,6.391050339E0
2.993290067E1,2.856000185E0,-1.636200142E1,6.391050339E0
2.995290067E1,2.856000185E0,-1.636200142E1,6.391050339E0
2.997290067E1,2.856000185E0,-1.636200142E1,6.391050339E0
2.999290067E1,6.399000168E0,-1.488795090E1,-5.590500236E-1
3.001290067E1,6.399000168E0,-1.488795090E1,-5.590500236E-1
3.003290067E1,6.399000168E0,-1.488795090E1,-5.590500236E-1
3.005290067E1,6.399000168E0,-1.488795090E1,-5.590500236E-1
3.007290067E1,6.399000168E0,-1.488795090E1,-5.590500236E-1
3.009290067E1,6.399000168E0,-1.488795090E1,-5.590500236E-1
3.011290067E1,6.399000168E0,-1.488795090E1,-5.590500236E-1
3.013290067E1,-4.305000305E0,-8.664000511E0,-5.959050179E0
3.015290067E1,-4.305000305E0,-8.664000511E0,-5.959050179E0
3.017290067E1,-1.347705078E1,-7.360500097E-1,-6.706050396E0
3.019290067E1,-1.347705078E1,-7.360500097E-1,-6.706050396E0
3.021290067E1,-1.347705078E1,-7.360500097E-1,-6.706050396E0
3.023290067E1,-1.472205067E1,1.905000091E0,-3.870000243E-1
3.025290067E1,-1.472205067E1,1.905000091E0,-3.870000243E-1
3.027290067E1,-2.044950008E0,-3.168000221E0,5.740050316E0
3.029290067E1,-2.044950008E0,-3.168000221E0,5.740050316E0
3.031290067E1,-2.044950008E0,-3.168000221E0,5.740050316E0
3.033290067E1,-2.044950008E0,-3.168000221E0,5.740050316E0
3.035290067E1,-2.044950008E0,-3.168000221E0,5.740050316E0
3.037290067E1,1.975050092E0,-3.907305145E1,-5.824950218E0
3.039290067E1,1.975050092E0,-3.907305145E1,-5.824950218E0
3.041290067E1,1.975050092E0,-3.907305145E1,-5.824950218E0
3.043290067E1,1.975050092E0,-3.907305145E1,-5.824950218E0
3.045290067E1,1.975050092E0,-3.907305145E1,-5.824950218E0
3.047290067E1,4.120050430E0,-1.483050108E0,6.460500360E-1
3.049290067E1,4.120050430E0,-1.483050108E0,6.460500360E-1
3.051290067E1,5.403000355E0,2.977950096E0,-3.393000126E0
3.053290067E1,5.403000355E0,2.977950096E0,-3.393000126E0
3.055290067E1,5.403000355E0,2.977950096E0,-3.393000126E0
3.057290067E1,5.403000355E0,2.977950096E0,-3.393000126E0
3.059290067E1,5.403000355E0,2.977950096E0,-3.393000126E0
3.061290067E1,2.703000069E0,-3.301950216E0,-2.818950176E0
3.063290067E1,2.703000069E0,-3.301950216E0,-2.818950176E0
3.065290067E1,2.703000069E0,-3.301950216E0,-2.818950176E0
3.067290067E1,2.703000069E0,-3.301950216E0,-2.818950176E0
3.069290067E1,2.703000069E0,-3.301950216E0,-2.818950176E0
3.071290067E1,-7.050000429E-1,-3.512805176E1,7.597050190E0
3.073290067E1,-7.050000429E-1,-3.512805176E1,7.597050190E0
3.075290067E1,-7.050000429E-1,-3.512805176E1,7.597050190E0
3.077290067E1,-7.050000429E-1,-3.512805176E1,7.597050190E0
3.079290067E1,-7.050000429E-1,-3.512805176E1,7.597050190E0
3.081290067E1,-7.050000429E-1,-3.512805176E1,7.597050190E0
3.083290067E1,-7.050000429E-1,-3.512805176E1,7.597050190E0
3.085290067E1,-8.115000725E0,-2.593950033E0,-7.395000458E0
3.087290067E1,-8.115000725E0,-2.593950033E0,-7.395000458E0
3.089290067E1,-1.342005062E1,8.329500556E-1,-9.138000488E0
3.091290067E1,-1.342005062E1,8.329500556E-1,-9.138000488E0
3.093290067E1,-1.342005062E1,8.329500556E-1,-9.138000488E0
3.095290067E1,-1.342005062E1,8.329500556E-1,-9.138000488E0
3.097290067E1,-1.342005062E1,8.329500556E-1,-9.138000488E0
3.099290067E1,-1.342005062E1,8.329500556E-1,-9.138000488E0
3.101290067E1,-1.342005062E1,8.329500556E-1,-9.138000488E0
3.103290067E1,-1.342005062E1,8.329500556E-1,-9.138000488E0
3.105290067E1,4.369050026E0,-3.805800247E1,1.720995140E1
3.107290067E1,4.369050026E0,-3.805800247E1,1.720995140E1
3.109290067E1,3.277050257E0,-1.126800060E1,2.005950212E0
3.111290067E1,3.277050257E0,-1.126800060E1,2.005950212E0
3.113290067E1,3.277050257E0,-1.126800060E1,2.005950212E0
3.115290067E1,3.277050257E0,-1.126800060E1,2.005950212E0
3.117290067E1,3.277050257E0,-1.126800060E1,2.005950212E0
3.119290067E1,-1.087950110E0,-2.019000053E0,-4.849050045E0
3.121290067E1,-1.087950110E0,-2.019000053E0,-4.849050045E0
3.123290067E1,-2.638950109E0,-5.256000042E0,-2.971950054E0
3.125290067E1,-2.638950109E0,-5.256000042E0,-2.971950054E0
3.127290067E1,-2.638950109E0,-5.256000042E0,-2.971950054E0
3.129290067E1,3.090000153E-1,-8.434050560E0,-1.746000051E0
3.131290067E1,3.090000153E-1,-8.434050560E0,-1.746000051E0
3.133290067E1,3.948000193E0,-1.917705154E1,-6.169500351E-1
3.135290067E1,3.948000193E0,-1.917705154E1,-6.169500351E-1
3.137290067E1,3.948000193E0,-1.917705154E1,-6.169500351E-1
3.139290067E1,3.948000193E0,-1.917705154E1,-6.169500351E-1
3.141290067E1,3.948000193E0,-1.917705154E1,-6.169500351E-1
3.143290067E1,4.867050171E0,-9.162000656E0,1.660950065E0
3.145290067E1,4.867050171E0,-9.162000656E0,1.660950065E0
3.147290067E1,4.867050171E0,-9.162000656E0,1.660950065E0
3.149290067E1,4.867050171E0,-9.162000656E0,1.660950065E0
3.151290067E1,4.867050171E0,-9.162000656E0,1.660950065E0
3.153290067E1,2.473050117E0,-9.258000374E0,-4.830000103E-1
3.155290067E1,2.473050117E0,-9.258000374E0,-4.830000103E-1
3.157290067E1,1.750500053E-1,-1.027305031E1,-1.950000077E-1
3.159290067E1,1.750500053E-1,-1.027305031E1,-1.950000077E-1
3.161290067E1,1.750500053E-1,-1.027305031E1,-1.950000077E-1
3.163290067E1,1.750500053E-1,-1.027305031E1,-1.950000077E-1
3.165290067E1,1.750500053E-1,-1.027305031E1,-1.950000077E-1
3.167290067E1,-2.734050035E0,-1.136400032E1,-2.140500098E-1
3.169290067E1,-2.734050035E0,-1.136400032E1,-2.140500098E-1
3.171290067E1,-2.734050035E0,-1.136400032E1,-2.140500098E-1
3.173290067E1,-2.734050035E0,-1.136400032E1,-2.140500098E-1
3.175290067E1,-2.734050035E0,-1.136400032E1,-2.140500098E-1
3.177290067E1,-2.907000065E0,-6.385050297E0,3.589500189E-1
3.179290067E1,-2.907000065E0,-6.385050297E0,3.589500189E-1
3.181290067E1,2.071050167E0,-2.005800056E1,-4.522950172E0
3.183290067E1,2.071050167E0,-2.005800056E1,-4.522950172E0
3.185290067E1,2.071050167E0,-2.005800056E1,-4.522950172E0
3.187290067E1,6.399000168E0,-2.453895187E1,-1.153050065E0
3.189290067E1,6.399000168E0,-2.453895187E1,-1.153050065E0
3.191290067E1,6.399000168E0,-2.453895187E1,-1.153050065E0
3.193290067E1,6.399000168E0,-2.453895187E1,-1.153050065E0
3.195290067E1,2.703000069E0,-4.873050213E0,9.972000122E0
3.197290067E1,2.703000069E0,-4.873050213E0,9.972000122E0
3.199290067E1,2.703000069E0,-4.873050213E0,9.972000122E0
3.201290067E1,6.322050095E0,-6.079050064E0,7.200000435E-2
3.203290067E1,6.322050095E0,-6.079050064E0,7.200000435E-2
3.205290067E1,6.322050095E0,-6.079050064E0,7.200000435E-2
3.207290067E1,6.322050095E0,-6.079050064E0,7.200000435E-2
3.209290067E1,6.322050095E0,-6.079050064E0,7.200000435E-2
3.211290067E1,-7.809000492E0,-1.147905064E1,-5.767950058E0
3.213290067E1,-7.809000492E0,-1.147905064E1,-5.767950058E0
3.215290067E1,-8.422050476E0,-1.921500015E1,-5.212050438E0
3.217290067E1,-8.422050476E0,-1.921500015E1,-5.212050438E0
3.219290067E1,-8.422050476E0,-1.921500015E1,-5.212050438E0
3.221290067E1,-8.422050476E0,-1.921500015E1,-5.212050438E0
3.223290067E1,-8.422050476E0,-1.921500015E1,-5.212050438E0
3.225290067E1,3.411000252E0,-1.033005047E1,1.144050002E0
3.227290067E1,3.411000252E0,-1.033005047E1,1.144050002E0
3.229290067E1,3.411000252E0,-1.033005047E1,1.144050002E0
3.231290067E1,3.411000252E0,-1.033005047E1,1.144050002E0
3.233290067E1,3.411000252E0,-1.033005047E1,1.144050002E0
3.235290067E1,5.748000145E0,-1.040700054E1,-1.842000127E0
3.237290067E1,5.748000145E0,-1.040700054E1,-1.842000127E0
3.239290067E1,3.238950253E0,-1.147905064E1,-8.850000501E-1
3.241290067E1,3.238950253E0,-1.147905064E1,-8.850000501E-1
3.243290067E1,3.238950253E0,-1.147905064E1,-8.850000501E-1
3.245290067E1,3.238950253E0,-1.147905064E1,-8.850000501E-1
3.247290067E1,3.238950253E0,-1.147905064E1,-8.850000501E-1
3.249290067E1,-6.448950291E0,-1.216800022E1,5.089050293E0
3.251290067E1,-6.448950291E0,-1.216800022E1,5.089050293E0
3.253290067E1,-3.499950171E0,-4.891950130E0,3.019500077E-1
3.255290067E1,-3.499950171E0,-4.891950130E0,3.019500077E-1
3.257290067E1,-3.499950171E0,-4.891950130E0,3.019500077E-1
3.259290067E1,-8.191950798E0,-1.138050079E0,-5.251050472E0
3.261290067E1,-8.191950798E0,-1.138050079E0,-5.251050472E0
3.263290067E1,-2.868000031E0,-9.391950607E0,-4.810050011E0
3.265290067E1,-2.868000031E0,-9.391950607E0,-4.810050011E0
3.267290067E1,-2.868000031E0,-9.391950607E0,-4.810050011E0
3.269290067E1,-2.868000031E0,-9.391950607E0,-4.810050011E0
3.271290067E1,-2.868000031E0,-9.391950607E0,-4.810050011E0
3.273290067E1,5.863050461E0,-3.698595047E1,2.121000051E0
3.275290067E1,5.863050461E0,-3.698595047E1,2.121000051E0
3.277290067E1,5.863050461E0,-3.698595047E1,2.121000051E0
3.279290067E1,5.863050461E0,-3.698595047E1,2.121000051E0
3.281290067E1,5.863050461E0,-3.698595047E1,2.121000051E0
3.283290067E1,3.736950159E0,-6.634050369E0,-4.249500334E-1
3.285290067E1,3.736950159E0,-6.634050369E0,-4.249500334E-1
3.287290067E1,2.607000113E0,-1.809000134E0,-5.002050400E0
3.289290067E1,2.607000113E0,-1.809000134E0,-5.002050400E0
3.291290067E1,2.607000113E0,-1.809000134E0,-5.002050400E0
3.293290067E1,1.573050022E0,1.636950135E0,-3.738000154E0
3.295290067E1,1.573050022E0,1.636950135E0,-3.738000154E0
3.297290067E1,1.209000111E0,-3.340500295E-1,-1.134000063E0
3.299290067E1,1.209000111E0,-3.340500295E-1,-1.134000063E0
3.301290067E1,1.765050054E0,-1.004295063E1,-1.038000107E0
3.303290067E1,1.765050054E0,-1.004295063E1,-1.038000107E0
3.305290067E1,1.765050054E0,-1.004295063E1,-1.038000107E0
3.307290067E1,7.720050335E0,-2.846400070E1,1.753605080E1
3.309290067E1,7.720050335E0,-2.846400070E1,1.753605080E1
3.311290067E1,7.720050335E0,-2.846400070E1,1.753605080E1
3.313290067E1,7.720050335E0,-2.846400070E1,1.753605080E1
3.315290067E1,7.720050335E0,-2.846400070E1,1.753605080E1
3.317290067E1,-6.660000324E0,-1.530900097E1,-1.245105076E1
3.319290067E1,-6.660000324E0,-1.530900097E1,-1.245105076E1
3.321290067E1,-8.842950821E0,-3.952950239E0,-6.304050446E0
3.323290067E1,-8.842950821E0,-3.952950239E0,-6.304050446E0
3.325290067E1,-8.842950821E0,-3.952950239E0,-6.304050446E0
3.327290067E1,-8.842950821E0,-3.952950239E0,-6.304050446E0
3.329290067E1,-8.842950821E0,-3.952950239E0,-6.304050446E0
3.331290067E1,-6.544950485E0,1.819500029E-1,3.270000219E0
3.333290067E1,-6.544950485E0,1.819500029E-1,3.270000219E0
3.335290067E1,-6.544950485E0,1.819500029E-1,3.270000219E0
3.337290067E1,-6.544950485E0,1.819500029E-1,3.270000219E0
3.339290067E1,-6.544950485E0,1.819500029E-1,3.270000219E0
3.341290067E1,4.819500148E-1,-3.907305145E1,-9.673950195E0
3.343290067E1,4.819500148E-1,-3.907305145E1,-9.673950195E0
3.345290067E1,4.819500148E-1,-3.907305145E1,-9.673950195E0
3.347290067E1,4.819500148E-1,-3.907305145E1,-9.673950195E0
3.349290067E1,4.819500148E-1,-3.907305145E1,-9.673950195E0
3.351290067E1,4.819500148E-1,-3.907305145E1,-9.673950195E0
3.353290067E1,4.819500148E-1,-3.907305145E1,-9.673950195E0
3.355290067E1,1.264095020E1,4.012050152E0,-5.959050179E0
3.357290067E1,1.264095020E1,4.012050152E0,-5.959050179E0
3.359290067E1,1.264095020E1,4.012050152E0,-5.959050179E0
3.361290067E1,1.264095020E1,4.012050152E0,-5.959050179E0
3.363290067E1,1.264095020E1,4.012050152E0,-5.959050179E0
3.365290067E1,6.322050095E0,-1.808505058E1,3.078000069E0
3.367290067E1,6.322050095E0,-1.808505058E1,3.078000069E0
3.369290067E1,9.799500704E-1,-3.028305054E1,1.968000054E0
3.371290067E1,9.799500704E-1,-3.028305054E1,1.968000054E0
3.373290067E1,9.799500704E-1,-3.028305054E1,1.968000054E0
3.375290067E1,-2.524050236E0,-3.907305145E1,-3.469950199E0
3.377290067E1,-2.524050236E0,-3.907305145E1,-3.469950199E0
3.379290067E1,-2.524050236E0,-3.907305145E1,-3.469950199E0
3.381290067E1,-2.524050236E0,-3.907305145E1,-3.469950199E0
3.383290067E1,-2.524050236E0,-3.907305145E1,-3.469950199E0
3.385290067E1,-2.524050236E0,-3.907305145E1,-3.469950199E0
3.387290067E1,-2.524050236E0,-3.907305145E1,-3.469950199E0
3.389290067E1,-2.230500031E1,2.632950068E0,-4.426949978E0
3.391290067E1,-2.230500031E1,2.632950068E0,-4.426949978E0
3.393290067E1,-2.230500031E1,2.632950068E0,-4.426949978E0
3.395290067E1,-2.230500031E1,2.632950068E0,-4.426949978E0
3.397290067E1,-2.230500031E1,2.632950068E0,-4.426949978E0
3.399290067E1,-2.275050163E0,-8.700000644E-1,-1.380000114E-1
3.401290067E1,-2.275050163E0,-8.700000644E-1,-1.380000114E-1
3.403290067E1,-7.158000469E0,-3.907305145E1,-1.407795048E1
3.405290067E1,-7.158000469E0,-3.907305145E1,-1.407795048E1
3.407290067E1,-7.158000469E0,-3.907305145E1,-1.407795048E1
3.409290067E1,-7.158000469E0,-3.907305145E1,-1.407795048E1
3.411290067E1,-7.158000469E0,-3.907305145E1,-1.407795048E1
3.413290067E1,-7.158000469E0,-3.907305145E1,-1.407795048E1
3.415290067E1,-7.158000469E0,-3.907305145E1,-1.407795048E1
3.417290067E1,-7.158000469E0,-3.907305145E1,-1.407795048E1
3.419290067E1,-7.158000469E0,-3.907305145E1,-1.407795048E1
3.421290067E1,-7.158000469E0,-3.907305145E1,-1.407795048E1
3.423290067E1,1.264095020E1,-2.689950228E0,7.800000310E-1
3.425290067E1,1.264095020E1,-2.689950228E0,7.800000310E-1
3.427290067E1,8.697000504E0,-1.592205048E1,4.591050148E0
3.429290067E1,8.697000504E0,-1.592205048E1,4.591050148E0
3.431290067E1,8.697000504E0,-1.592205048E1,4.591050148E0
3.433290067E1,8.697000504E0,-1.592205048E1,4.591050148E0
3.435290067E1,8.697000504E0,-1.592205048E1,4.591050148E0
3.437290067E1,-5.299950123E0,-3.675600052E1,-4.102050304E0
3.439290067E1,-5.299950123E0,-3.675600052E1,-4.102050304E0
3.441290067E1,-1.738950133E0,-1.471500111E1,-2.991000175E0
3.443290067E1,-1.738950133E0,-1.471500111E1,-2.991000175E0
3.445290067E1,-1.738950133E0,-1.471500111E1,-2.991000175E0
3.447290067E1,-1.849395180E1,8.595000207E-2,-1.229805088E1
3.449290067E1,-1.849395180E1,8.595000207E-2,-1.229805088E1
3.451290067E1,-1.849395180E1,8.595000207E-2,-1.229805088E1
3.453290067E1,-1.849395180E1,8.595000207E-2,-1.229805088E1
3.455290067E1,-1.849395180E1,8.595000207E-2,-1.229805088E1
3.457290067E1,-1.849395180E1,8.595000207E-2,-1.229805088E1
3.459290067E1,-1.849395180E1,8.595000207E-2,-1.229805088E1
3.461290067E1,-2.677050114E0,-2.913495064E1,1.297050118E0
3.463290067E1,-2.677050114E0,-2.913495064E1,1.297050118E0
3.465290067E1,-2.677050114E0,-2.913495064E1,1.297050118E0
3.467290067E1,-2.677050114E0,-2.913495064E1,1.297050118E0
3.469290067E1,-2.677050114E0,-2.913495064E1,1.297050118E0
3.471290067E1,2.875050068E0,-2.268000126E0,2.254950047E0
3.473290067E1,2.875050068E0,-2.268000126E0,2.254950047E0
3.475290067E1,6.858000278E0,4.912050247E0,-6.379950523E0
3.477290067E1,6.858000278E0,4.912050247E0,-6.379950523E0
3.479290067E1,6.858000278E0,4.912050247E0,-6.379950523E0
3.481290067E1,5.767050266E0,5.983950138E0,-6.495000362E0
3.483290067E1,5.767050266E0,5.983950138E0,-6.495000362E0
3.485290067E1,5.767050266E0,5.983950138E0,-6.495000362E0
3.487290067E1,5.767050266E0,5.983950138E0,-6.495000362E0
3.489290067E1,5.767050266E0,5.983950138E0,-6.495000362E0
3.491290067E1,5.767050266E0,5.983950138E0,-6.495000362E0
3.493290067E1,5.767050266E0,5.983950138E0,-6.495000362E0
3.495290067E1,5.767050266E0,5.983950138E0,-6.495000362E0
3.497290067E1,5.767050266E0,5.983950138E0,-6.495000362E0
3.499290067E1,-3.409500122E-1,-2.314095116E1,-1.689000130E0
3.501290067E1,-3.409500122E-1,-2.314095116E1,-1.689000130E0
3.503290067E1,-3.409500122E-1,-2.314095116E1,-1.689000130E0
3.505290067E1,-3.220500052E-1,-6.519000530E0,-1.593000054E0
3.507290067E1,-3.220500052E-1,-6.519000530E0,-1.593000054E0
3.509290067E1,-1.858995056E1,3.091950178E0,-1.335105038E1
3.511290067E1,-1.858995056E1,3.091950178E0,-1.335105038E1
3.513290067E1,-2.121300125E1,3.897000074E0,-4.177950382E0
3.515290067E1,-2.121300125E1,3.897000074E0,-4.177950382E0
3.517290067E1,-2.121300125E1,3.897000074E0,-4.177950382E0
3.519290067E1,-2.293950081E0,-1.999500096E-1,7.800000310E-1
3.521290067E1,-2.293950081E0,-1.999500096E-1,7.800000310E-1
3.523290067E1,-2.293950081E0,-1.999500096E-1,7.800000310E-1
3.525290067E1,-2.293950081E0,-1.999500096E-1,7.800000310E-1
3.527290067E1,-2.293950081E0,-1.999500096E-1,7.800000310E-1
3.529290067E1,5.038950443E0,-3.905400085E1,1.100595093E1
3.531290067E1,5.038950443E0,-3.905400085E1,1.100595093E1
3.533290067E1,1.420050025E0,-7.266000271E0,2.752950191E0
3.535290067E1,1.420050025E0,-7.266000271E0,2.752950191E0
3.537290067E1,1.420050025E0,-7.266000271E0,2.752950191E0
3.539290067E1,1.420050025E0,-7.266000271E0,2.752950191E0
3.541290067E1,1.420050025E0,-7.266000271E0,2.752950191E0
3.543290067E1,5.389500260E-1,3.781950235E0,-8.467950821E0
3.545290067E1,5.389500260E-1,3.781950235E0,-8.467950821E0
3.547290067E1,3.258000135E0,-6.790500283E-1,-4.734000206E0
3.549290067E1,3.258000135E0,-6.790500283E-1,-4.734000206E0
3.551290067E1,3.258000135E0,-6.790500283E-1,-4.734000206E0
3.553290067E1,6.552000523E0,-7.150950432E0,-1.057050109E0
3.555290067E1,6.552000523E0,-7.150950432E0,-1.057050109E0
3.557290067E1,6.552000523E0,-7.150950432E0,-1.057050109E0
3.559290067E1,6.552000523E0,-7.150950432E0,-1.057050109E0
3.561290067E1,6.552000523E0,-7.150950432E0,-1.057050109E0
3.563290067E1,6.552000523E0,-7.150950432E0,-1.057050109E0
3.565290067E1,6.552000523E0,-7.150950432E0,-1.057050109E0
3.567290067E1,-5.899500251E-1,-1.538505077E1,5.119500160E-1
3.569290067E1,-5.899500251E-1,-1.538505077E1,5.119500160E-1
3.571290067E1,-5.899500251E-1,-1.538505077E1,5.119500160E-1
3.573290067E1,-5.899500251E-1,-1.538505077E1,5.119500160E-1
3.575290067E1,-5.899500251E-1,-1.538505077E1,5.119500160E-1
3.577290067E1,-2.422005081E1,-2.650950193E0,-1.007595062E1
3.579290067E1,-2.422005081E1,-2.650950193E0,-1.007595062E1
3.581290067E1,-3.462000132E0,-7.897950172E0,-1.095000029E0
3.583290067E1,-3.462000132E0,-7.897950172E0,-1.095000029E0
3.585290067E1,-3.462000132E0,-7.897950172E0,-1.095000029E0
3.587290067E1,7.690500617E-1,-1.957905006E1,-3.949050188E0
3.589290067E1,7.690500617E-1,-1.957905006E1,-3.949050188E0
3.591290067E1,7.690500617E-1,-1.957905006E1,-3.949050188E0
3.593290067E1,7.690500617E-1,-1.957905006E1,-3.949050188E0
3.595290067E1,7.690500617E-1,-1.957905006E1,-3.949050188E0
3.597290067E1,7.690500617E-1,-1.957905006E1,-3.949050188E0
3.599290067E1,7.690500617E-1,-1.957905006E1,-3.949050188E0
3.601290067E1,1.458000064E0,-3.130050182E0,-1.015305042E1
3.603290067E1,1.458000064E0,-3.130050182E0,-1.015305042E1
3.605290067E1,1.458000064E0,-3.130050182E0,-1.015305042E1
3.607290067E1,1.458000064E0,-3.130050182E0,-1.015305042E1
3.609290067E1,1.458000064E0,-3.130050182E0,-1.015305042E1
3.611290067E1,-1.030050039E0,-1.521000028E0,-6.285000324E0
3.613290067E1,-1.030050039E0,-1.521000028E0,-6.285000324E0
3.615290067E1,2.644950151E0,-1.978995132E1,-2.282999992E0
3.617290067E1,2.644950151E0,-1.978995132E1,-2.282999992E0
3.619290067E1,2.644950151E0,-1.978995132E1,-2.282999992E0
3.621290067E1,2.644950151E0,-1.978995132E1,-2.282999992E0
3.623290067E1,2.644950151E0,-1.978995132E1,-2.282999992E0
3.625290067E1,4.656000137E0,-1.107705021E1,5.413950443E0
3.627290067E1,4.656000137E0,-1.107705021E1,5.413950443E0
3.629290067E1,4.656000137E0,-1.107705021E1,5.413950443E0
3.631290067E1,4.656000137E0,-1.107705021E1,5.413950443E0
3.633290067E1,4.656000137E0,-1.107705021E1,5.413950443E0
3.635290067E1,7.309500575E-1,-1.517505074E1,-8.850000501E-1
3.637290067E1,7.309500575E-1,-1.517505074E1,-8.850000501E-1
3.639290067E1,-3.826050282E0,-1.682205009E1,-2.149049997E0
3.641290067E1,-3.826050282E0,-1.682205009E1,-2.149049997E0
3.643290067E1,-3.826050282E0,-1.682205009E1,-2.149049997E0
3.645290067E1,-3.826050282E0,-1.682205009E1,-2.149049997E0
3.647290067E1,-3.826050282E0,-1.682205009E1,-2.149049997E0
3.649290067E1,-8.613000870E0,-2.709000111E0,-1.593000054E0
3.651290067E1,-8.613000870E0,-2.709000111E0,-1.593000054E0
3.653290067E1,-1.777050138E0,-4.183050156E0,2.331000090E0
3.655290067E1,-1.777050138E0,-4.183050156E0,2.331000090E0
3.657290067E1,-1.777050138E0,-4.183050156E0,2.331000090E0
3.659290067E1,1.132950068E0,-2.536200142E1,-3.738000154E0
3.661290067E1,1.132950068E0,-2.536200142E1,-3.738000154E0
3.663290067E1,1.132950068E0,-2.536200142E1,-3.738000154E0
3.665290067E1,1.132950068E0,-2.536200142E1,-3.738000154E0
3.667290067E1,1.132950068E0,-2.536200142E1,-3.738000154E0
3.669290067E1,5.767050266E0,-5.599950314E0,6.793050289E0
3.671290067E1,5.767050266E0,-5.599950314E0,6.793050289E0
3.673290067E1,7.930950165E0,-7.560000420E-1,1.891050100E0
3.675290067E1,7.930950165E0,-7.560000420E-1,1.891050100E0
3.677290067E1,7.930950165E0,-7.560000420E-1,1.891050100E0
3.679290067E1,7.930950165E0,-7.560000420E-1,1.891050100E0
3.681290067E1,7.930950165E0,-7.560000420E-1,1.891050100E0
3.683290067E1,2.856000185E0,-1.136400032E1,-8.080500364E-1
3.685290067E1,2.856000185E0,-1.136400032E1,-8.080500364E-1
3.687290067E1,6.349500418E-1,-1.483005047E1,-8.269500136E-1
3.689290067E1,6.349500418E-1,-1.483005047E1,-8.269500136E-1
3.691290067E1,6.349500418E-1,-1.483005047E1,-8.269500136E-1
3.693290067E1,-4.560000300E-1,-1.551900101E1,3.970500231E-1
3.695290067E1,-4.560000300E-1,-1.551900101E1,3.970500231E-1
3.697290067E1,-3.807000160E0,-1.082805061E1,7.023000240E0
3.699290067E1,-3.807000160E0,-1.082805061E1,7.023000240E0
3.701290067E1,-3.807000160E0,-1.082805061E1,7.023000240E0
3.703290067E1,-3.807000160E0,-1.082805061E1,7.023000240E0
3.705290067E1,-3.807000160E0,-1.082805061E1,7.023000240E0
3.707290067E1,4.522050381E0,-1.266600037E1,8.760000467E-1
3.709290067E1,4.522050381E0,-1.266600037E1,8.760000467E-1
3.711290067E1,4.522050381E0,-1.266600037E1,8.760000467E-1
3.713290067E1,4.522050381E0,-1.266600037E1,8.760000467E-1
3.715290067E1,4.522050381E0,-1.266600037E1,8.760000467E-1
3.717290067E1,4.618050098E0,-7.170000553E0,-1.879950047E0
3.719290067E1,4.618050098E0,-7.170000553E0,-1.879950047E0
3.721290067E1,2.377050161E0,-9.277050018E0,1.585050106E0
3.723290067E1,2.377050161E0,-9.277050018E0,1.585050106E0
3.725290067E1,2.377050161E0,-9.277050018E0,1.585050106E0
3.727290067E1,2.377050161E0,-9.277050018E0,1.585050106E0
3.729290067E1,2.377050161E0,-9.277050018E0,1.585050106E0
3.731290067E1,-2.064000130E0,-1.025295067E1,-1.228950024E0
3.733290067E1,-2.064000130E0,-1.025295067E1,-1.228950024E0
3.735290067E1,-2.064000130E0,-1.025295067E1,-1.228950024E0
3.737290067E1,-2.064000130E0,-1.025295067E1,-1.228950024E0
3.739290067E1,-2.064000130E0,-1.025295067E1,-1.228950024E0
3.741290067E1,-3.079050064E0,-1.163205051E1,8.569500446E-1
3.743290067E1,-3.079050064E0,-1.163205051E1,8.569500446E-1
3.745290067E1,-3.079050064E0,-1.163205051E1,8.569500446E-1
3.747290067E1,-3.079050064E0,-1.163205051E1,8.569500446E-1
3.749290067E1,-3.079050064E0,-1.163205051E1,8.569500446E-1
3.751290067E1,-3.079050064E0,-1.163205051E1,8.569500446E-1
3.753290067E1,-3.079050064E0,-1.163205051E1,8.569500446E-1
3.755290067E1,8.601000786E0,-2.379195023E1,-7.261050224E0
3.757290067E1,8.601000786E0,-2.379195023E1,-7.261050224E0
3.759290067E1,8.926050186E0,-1.887105179E1,-5.710050106E0
3.761290067E1,8.926050186E0,-1.887105179E1,-5.710050106E0
3.763290067E1,8.926050186E0,-1.887105179E1,-5.710050106E0
3.765290067E1,5.748000145E0,-6.232050419E0,-1.950000077E-1
3.767290067E1,5.748000145E0,-6.232050419E0,-1.950000077E-1
3.769290067E1,5.058000088E0,-9.928050041E0,1.527000070E0
3.771290067E1,5.058000088E0,-9.928050041E0,1.527000070E0
3.773290067E1,5.058000088E0,-9.928050041E0,1.527000070E0
3.775290067E1,4.197000027E0,-1.320195103E1,1.362900066E1
3.777290067E1,4.197000027E0,-1.320195103E1,1.362900066E1
3.779290067E1,-2.754000187E0,-9.238950729E0,4.342050076E0
3.781290067E1,-2.754000187E0,-9.238950729E0,4.342050076E0
3.783290067E1,-2.754000187E0,-9.238950729E0,4.342050076E0
3.785290067E1,-2.754000187E0,-9.238950729E0,4.342050076E0
3.787290067E1,-2.754000187E0,-9.238950729E0,4.342050076E0
3.789290067E1,6.160500050E-1,-1.078995037E1,-2.416950226E0
3.791290067E1,6.160500050E-1,-1.078995037E1,-2.416950226E0
3.793290067E1,6.160500050E-1,-1.078995037E1,-2.416950226E0
3.795290067E1,6.160500050E-1,-1.078995037E1,-2.416950226E0
3.797290067E1,6.160500050E-1,-1.078995037E1,-2.416950226E0
3.799290067E1,1.840950131E0,-7.324050426E0,4.189050198E0
3.801290067E1,1.840950131E0,-7.324050426E0,4.189050198E0
3.803290067E1,2.397000074E0,-6.595950127E0,2.236050129E0
3.805290067E1,2.397000074E0,-6.595950127E0,2.236050129E0
3.807290067E1,2.397000074E0,-6.595950127E0,2.236050129E0
3.809290067E1,2.397000074E0,-6.595950127E0,2.236050129E0
3.811290067E1,2.397000074E0,-6.595950127E0,2.236050129E0
3.813290067E1,2.397000074E0,-9.601950645E0,-4.083000183E0
3.815290067E1,2.397000074E0,-9.601950645E0,-4.083000183E0
3.817290067E1,2.397000074E0,-9.601950645E0,-4.083000183E0
3.819290067E1,2.397000074E0,-9.601950645E0,-4.083000183E0
3.821290067E1,2.397000074E0,-9.601950645E0,-4.083000183E0
3.823290067E1,5.958000183E0,-8.722050667E0,1.872000098E0
3.825290067E1,5.958000183E0,-8.722050667E0,1.872000098E0
3.827290067E1,7.471050262E0,-8.644950867E0,8.380500674E-1
3.829290067E1,7.471050262E0,-8.644950867E0,8.380500674E-1
3.831290067E1,7.471050262E0,-8.644950867E0,8.380500674E-1
3.833290067E1,7.471050262E0,-8.644950867E0,8.380500674E-1
3.835290067E1,7.471050262E0,-8.644950867E0,8.380500674E-1
3.837290067E1,-3.691950083E0,-1.285800076E1,-3.679500222E-1
3.839290067E1,-3.691950083E0,-1.285800076E1,-3.679500222E-1
3.841290067E1,-3.442950249E0,-1.283895016E1,-8.080500364E-1
3.843290067E1,-3.442950249E0,-1.283895016E1,-8.080500364E-1
3.845290067E1,-3.442950249E0,-1.283895016E1,-8.080500364E-1
3.847290067E1,-2.446950197E0,-7.975050449E0,-3.679500222E-1
3.849290067E1,-2.446950197E0,-7.975050449E0,-3.679500222E-1
3.851290067E1,1.114050031E0,-1.337505054E1,-3.604050159E0
3.853290067E1,1.114050031E0,-1.337505054E1,-3.604050159E0
3.855290067E1,1.114050031E0,-1.337505054E1,-3.604050159E0
3.857290067E1,7.414050579E0,-2.428995132E1,-4.944000244E0
3.859290067E1,7.414050579E0,-2.428995132E1,-4.944000244E0
3.861290067E1,6.226050377E0,-1.228305054E1,-1.095000029E0
3.863290067E1,6.226050377E0,-1.228305054E1,-1.095000029E0
3.865290067E1,6.226050377E0,-1.228305054E1,-1.095000029E0
3.867290067E1,6.226050377E0,-1.228305054E1,-1.095000029E0
3.869290067E1,6.226050377E0,-1.228305054E1,-1.095000029E0
3.871290067E1,2.818050146E0,-5.811000347E0,1.623000026E0
3.873290067E1,2.818050146E0,-5.811000347E0,1.623000026E0
3.875290067E1,5.556000233E0,-1.094295025E1,2.250000089E-1
3.877290067E1,5.556000233E0,-1.094295025E1,2.250000089E-1
3.879290067E1,5.556000233E0,-1.094295025E1,2.250000089E-1
3.881290067E1,-3.600000143E-1,-9.544950485E0,1.009950042E0
3.883290067E1,-3.600000143E-1,-9.544950485E0,1.009950042E0
3.885290067E1,-3.405000269E-2,-8.740950584E0,-2.110050201E0
3.887290067E1,-3.405000269E-2,-8.740950584E0,-2.110050201E0
3.889290067E1,-3.405000269E-2,-8.740950584E0,-2.110050201E0
3.891290067E1,-3.405000269E-2,-8.740950584E0,-2.110050201E0
3.893290067E1,-3.405000269E-2,-8.740950584E0,-2.110050201E0
3.895290067E1,-3.405000269E-2,-8.740950584E0,-2.110050201E0
3.897290067E1,-3.405000269E-2,-8.740950584E0,-2.110050201E0
3.899290067E1,-3.405000269E-2,-8.740950584E0,-2.110050201E0
3.901290067E1,-3.405000269E-2,-8.740950584E0,-2.110050201E0
3.903290067E1,-3.405000269E-2,-8.740950584E0,-2.110050201E0
3.905290067E1,3.928050280E0,-1.276200104E1,-7.120500207E-1
3.907290067E1,3.928050280E0,-1.276200104E1,-7.120500207E-1
3.909290067E1,4.924050331E0,-1.274295044E1,-5.116950035E0
3.911290067E1,4.924050331E0,-1.274295044E1,-5.116950035E0
3.913290067E1,4.924050331E0,-1.274295044E1,-5.116950035E0
3.915290067E1,4.924050331E0,-1.274295044E1,-5.116950035E0
3.917290067E1,4.924050331E0,-1.274295044E1,-5.116950035E0
3.919290067E1,-1.183050036E0,-1.538505077E1,2.503950119E0
3.921290067E1,-1.183050036E0,-1.538505077E1,2.503950119E0
3.923290067E1,-1.183050036E0,-1.538505077E1,2.503950119E0
3.925290067E1,-1.183050036E0,-1.538505077E1,2.503950119E0
3.927290067E1,-1.183050036E0,-1.538505077E1,2.503950119E0
3.929290067E1,-6.832050323E0,-2.517000198E0,-2.263050079E0
3.931290067E1,-6.832050323E0,-2.517000198E0,-2.263050079E0
3.933290067E1,-6.066000462E0,-1.656000137E0,8.760000467E-1
3.935290067E1,-6.066000462E0,-1.656000137E0,8.760000467E-1
3.937290067E1,-6.066000462E0,-1.656000137E0,8.760000467E-1
3.939290067E1,-6.066000462E0,-1.656000137E0,8.760000467E-1
3.941290067E1,-6.066000462E0,-1.656000137E0,8.760000467E-1
3.943290067E1,8.754000664E0,-3.907305145E1,1.891050100E0
3.945290067E1,8.754000664E0,-3.907305145E1,1.891050100E0
3.947290067E1,8.754000664E0,-3.907305145E1,1.891050100E0
3.949290067E1,8.754000664E0,-3.907305145E1,1.891050100E0
3.951290067E1,8.754000664E0,-3.907305145E1,1.891050100E0
3.953290067E1,6.111000061E0,-1.732050061E0,-2.742000103E0
3.955290067E1,6.111000061E0,-1.732050061E0,-2.742000103E0
3.957290067E1,4.809000015E0,1.789950132E0,-4.734000206E0
3.959290067E1,4.809000015E0,1.789950132E0,-4.734000206E0
3.961290067E1,4.809000015E0,1.789950132E0,-4.734000206E0
3.963290067E1,2.148000002E0,-2.038050175E0,-1.918950081E0
3.965290067E1,2.148000002E0,-2.038050175E0,-1.918950081E0
3.967290067E1,4.963050365E0,-2.572605133E1,-5.779500008E-1
3.969290067E1,4.963050365E0,-2.572605133E1,-5.779500008E-1
3.971290067E1,7.500000596E-1,-2.829195213E1,4.495050430E0
3.973290067E1,7.500000596E-1,-2.829195213E1,4.495050430E0
3.975290067E1,7.500000596E-1,-2.829195213E1,4.495050430E0
3.977290067E1,7.500000596E-1,-2.829195213E1,4.495050430E0
3.979290067E1,7.500000596E-1,-2.829195213E1,4.495050430E0
3.981290067E1,7.500000596E-1,-2.829195213E1,4.495050430E0
3.983290067E1,7.500000596E-1,-2.829195213E1,4.495050430E0
3.985290067E1,7.500000596E-1,-2.829195213E1,4.495050430E0
3.987290067E1,-1.068105030E1,-3.919500113E-1,-8.544000626E0
3.989290067E1,-1.068105030E1,-3.919500113E-1,-8.544000626E0
3.991290067E1,-1.068105030E1,-3.919500113E-1,-8.544000626E0
3.993290067E1,-1.068105030E1,-3.919500113E-1,-8.544000626E0
3.995290067E1,-1.068105030E1,-3.919500113E-1,-8.544000626E0
3.997290067E1,-1.068105030E1,-3.919500113E-1,-8.544000626E0
3.999290067E1,-1.068105030E1,-3.919500113E-1,-8.544000626E0
4.001290067E1,-2.179050207E0,-3.418995285E1,1.249995041E1
4.003290067E1,-2.179050207E0,-3.418995285E1,1.249995041E1
4.005290067E1,-1.011000037E0,-9.756000519E0,1.533405113E1
4.007290067E1,-1.011000037E0,-9.756000519E0,1.533405113E1
4.009290067E1,-1.011000037E0,-9.756000519E0,1.533405113E1
4.011290067E1,-2.695950031E0,-9.085050583E0,-7.528950214E0
4.013290067E1,-2.695950031E0,-9.085050583E0,-7.528950214E0
4.015290067E1,-2.695950031E0,-9.085050583E0,-7.528950214E0
4.017290067E1,-2.695950031E0,-9.085050583E0,-7.528950214E0
4.019290067E1,-2.695950031E0,-9.085050583E0,-7.528950214E0
4.021290067E1,-2.695950031E0,-9.085050583E0,-7.528950214E0
4.023290067E1,-2.695950031E0,-9.085050583E0,-7.528950214E0
4.025290067E1,6.349500418E-1,-5.428050041E0,-1.075950027E0
4.027290067E1,6.349500418E-1,-5.428050041E0,-1.075950027E0
4.029290067E1,5.460000038E0,-2.580300140E1,3.997050285E0
4.031290067E1,5.460000038E0,-2.580300140E1,3.997050285E0
4.033290067E1,5.460000038E0,-2.580300140E1,3.997050285E0
4.035290067E1,-1.164000034E0,-1.986600113E1,7.387050152E0
4.037290067E1,-1.164000034E0,-1.986600113E1,7.387050152E0
4.039290067E1,7.690500617E-1,-1.303005028E1,-1.248000026E0
4.041290067E1,7.690500617E-1,-1.303005028E1,-1.248000026E0
4.043290067E1,7.690500617E-1,-1.303005028E1,-1.248000026E0
4.045290067E1,7.690500617E-1,-1.303005028E1,-1.248000026E0
4.047290067E1,7.690500617E-1,-1.303005028E1,-1.248000026E0
4.049290067E1,-1.471050024E0,-2.862000227E0,-1.038000107E0
4.051290067E1,-1.471050024E0,-2.862000227E0,-1.038000107E0
4.053290067E1,-1.471050024E0,-2.862000227E0,-1.038000107E0
4.055290067E1,-1.471050024E0,-2.862000227E0,-1.038000107E0
4.057290067E1,-1.471050024E0,-2.862000227E0,-1.038000107E0
4.059290067E1,-3.940950155E0,-1.809000134E0,7.039500475E-1
4.061290067E1,-3.940950155E0,-1.809000134E0,7.039500475E-1
4.063290067E1,-1.222050071E0,-2.921100044E1,-1.019100094E1
4.065290067E1,-1.222050071E0,-2.921100044E1,-1.019100094E1
4.067290067E1,-1.222050071E0,-2.921100044E1,-1.019100094E1
4.069290067E1,5.614050388E0,-3.907305145E1,-3.814050198E0
4.071290067E1,5.614050388E0,-3.907305145E1,-3.814050198E0
4.073290067E1,9.600000381E-1,-1.111500072E1,9.819000244E0
4.075290067E1,9.600000381E-1,-1.111500072E1,9.819000244E0
4.077290067E1,9.600000381E-1,-1.111500072E1,9.819000244E0
4.079290067E1,9.600000381E-1,-1.111500072E1,9.819000244E0
4.081290067E1,9.600000381E-1,-1.111500072E1,9.819000244E0
4.083290067E1,1.212405014E1,-1.368000031E0,-4.657050133E0
4.085290067E1,1.212405014E1,-1.368000031E0,-4.657050133E0
4.087290067E1,1.212405014E1,-1.368000031E0,-4.657050133E0
4.089290067E1,1.212405014E1,-1.368000031E0,-4.657050133E0
4.091290067E1,1.212405014E1,-1.368000031E0,-4.657050133E0
4.093290067E1,1.212405014E1,-1.368000031E0,-4.657050133E0
4.095290067E1,1.212405014E1,-1.368000031E0,-4.657050133E0
4.097290067E1,1.212405014E1,-1.368000031E0,-4.657050133E0
4.097290067E1,3.832950115E0,-2.992005157E1,1.098705006E1
4.101290067E1,1.650000095E0,-3.143205070E1,2.962950230E0
4.103290067E1,1.650000095E0,-3.143205070E1,2.962950230E0
4.105290067E1,1.650000095E0,-3.143205070E1,2.962950230E0
4.107290067E1,-4.840950012E0,-1.812405014E1,-1.861050129E0
4.109290067E1,-4.840950012E0,-1.812405014E1,-1.861050129E0
4.111290067E1,-4.840950012E0,-1.812405014E1,-1.861050129E0
