"Time (s)","Gyroscope x (rad/s)","Gyroscope y (rad/s)","Gyroscope z (rad/s)"
4.079823000E-2,0.000000000E0,0.000000000E0,0.000000000E0
5.679823200E-2,0.000000000E0,0.000000000E0,0.000000000E0
7.679823200E-2,0.000000000E0,0.000000000E0,0.000000000E0
9.679823200E-2,9.162999988E-1,2.300374955E-1,3.629999980E-2
1.167982320E-1,9.162999988E-1,2.300374955E-1,3.629999980E-2
1.367982320E-1,9.162999988E-1,2.300374955E-1,3.629999980E-2
1.567982320E-1,9.162999988E-1,2.300374955E-1,3.629999980E-2
1.767982320E-1,9.162999988E-1,2.300374955E-1,3.629999980E-2
1.967982320E-1,2.997500002E-1,2.605625093E-1,6.627500057E-2
2.167982320E-1,2.997500002E-1,2.605625093E-1,6.627500057E-2
2.367982320E-1,-2.338874936E-1,1.512499992E-2,-8.703749627E-2
2.567982320E-1,-2.338874936E-1,1.512499992E-2,-8.703749627E-2
2.767982320E-1,-2.338874936E-1,1.512499992E-2,-8.703749627E-2
2.967982320E-1,-3.639625013E-1,-1.989624947E-1,-2.154625058E-1
3.167982320E-1,-3.639625013E-1,-1.989624947E-1,-2.154625058E-1
3.367982320E-1,-8.432874680E-1,-6.759499907E-1,-4.155249894E-1
3.567982320E-1,-8.432874680E-1,-6.759499907E-1,-4.155249894E-1
3.767982320E-1,-1.026849985E0,-8.255500197E-1,-3.822500110E-1
3.967982320E-1,-1.026849985E0,-8.255500197E-1,-3.822500110E-1
4.167982320E-1,-1.026849985E0,-8.255500197E-1,-3.822500110E-1
4.367982320E-1,-1.252900004E0,-8.065750003E-1,-2.017125040E-1
4.567982320E-1,-1.252900004E0,-8.065750003E-1,-2.017125040E-1
4.767982320E-1,-1.252900004E0,-8.065750003E-1,-2.017125040E-1
4.967982320E-1,-1.252900004E0,-8.065750003E-1,-2.017125040E-1
5.167982320E-1,-1.252900004E0,-8.065750003E-1,-2.017125040E-1
5.367982320E-1,-8.038250208E-1,-3.834874928E-1,2.062499989E-3
5.567982320E-1,-8.038250208E-1,-3.834874928E-1,2.062499989E-3
5.767982320E-1,-8.273375034E-1,-2.699125111E-1,3.638249934E-1
5.967982320E-1,-8.273375034E-1,-2.699125111E-1,3.638249934E-1
6.167982320E-1,-8.273375034E-1,-2.699125111E-1,3.638249934E-1
6.367982320E-1,-8.273375034E-1,-2.699125111E-1,3.638249934E-1
6.567982320E-1,-8.273375034E-1,-2.699125111E-1,3.638249934E-1
6.767982320E-1,-6.819999814E-1,-9.844999909E-1,9.605749846E-1
6.967982320E-1,-6.819999814E-1,-9.844999909E-1,9.605749846E-1
7.167982320E-1,-8.956750035E-1,-1.790662527E0,1.369087458E0
7.367982320E-1,-8.956750035E-1,-1.790662527E0,1.369087458E0
7.567982320E-1,-8.956750035E-1,-1.790662527E0,1.369087458E0
7.767982320E-1,-7.528125048E-1,-2.498650074E0,1.610674977E0
7.967982320E-1,-7.528125048E-1,-2.498650074E0,1.610674977E0
8.167982320E-1,-1.594999991E-2,-2.408999920E0,2.102375031E0
8.367982320E-1,-1.594999991E-2,-2.408999920E0,2.102375031E0
8.567982320E-1,-1.594999991E-2,-2.408999920E0,2.102375031E0
8.767982320E-1,-1.594999991E-2,-2.408999920E0,2.102375031E0
8.967982320E-1,-1.594999991E-2,-2.408999920E0,2.102375031E0
9.167982320E-1,-1.594999991E-2,-2.408999920E0,2.102375031E0
9.367982320E-1,-1.594999991E-2,-2.408999920E0,2.102375031E0
9.567982320E-1,-1.594999991E-2,-2.408999920E0,2.102375031E0
9.767982320E-1,-1.594999991E-2,-2.408999920E0,2.102375031E0
9.967982320E-1,-1.594999991E-2,-2.408999920E0,2.102375031E0
1.016798232E0,1.924175024E0,-2.654987574E0,1.733049989E0
1.036798232E0,1.924175024E0,-2.654987574E0,1.733049989E0
1.056798232E0,2.307937384E0,-2.664750099E0,1.380774975E0
1.076798232E0,2.307937384E0,-2.664750099E0,1.380774975E0
1.096798232E0,2.307937384E0,-2.664750099E0,1.380774975E0
1.116798232E0,2.212650061E0,-2.567125082E0,1.131487489E0
1.136798232E0,2.212650061E0,-2.567125082E0,1.131487489E0
1.156798232E0,1.904512525E0,-2.460562468E0,9.976999760E-1
1.176798232E0,1.904512525E0,-2.460562468E0,9.976999760E-1
1.196798232E0,1.904512525E0,-2.460562468E0,9.976999760E-1
1.216798232E0,1.904512525E0,-2.460562468E0,9.976999760E-1
1.236798232E0,1.904512525E0,-2.460562468E0,9.976999760E-1
1.256798232E0,7.708249688E-1,-1.375825047E0,1.511399984E0
1.276798232E0,7.708249688E-1,-1.375825047E0,1.511399984E0
1.296798232E0,7.708249688E-1,-1.375825047E0,1.511399984E0
1.316798232E0,7.708249688E-1,-1.375825047E0,1.511399984E0
1.336798232E0,7.708249688E-1,-1.375825047E0,1.511399984E0
1.356798232E0,-1.912624985E-1,-1.392325044E0,1.628824949E0
1.376798232E0,-1.912624985E-1,-1.392325044E0,1.628824949E0
1.396798232E0,1.152250022E-1,-1.225674987E0,1.331687450E0
1.416798232E0,1.152250022E-1,-1.225674987E0,1.331687450E0
1.436798232E0,1.152250022E-1,-1.225674987E0,1.331687450E0
1.456798232E0,1.152250022E-1,-1.225674987E0,1.331687450E0
1.476798232E0,1.152250022E-1,-1.225674987E0,1.331687450E0
1.496798232E0,5.321250111E-2,-1.286037445E0,1.066587448E0
1.516798232E0,5.321250111E-2,-1.286037445E0,1.066587448E0
1.536798232E0,5.321250111E-2,-1.286037445E0,1.066587448E0
1.556798232E0,5.321250111E-2,-1.286037445E0,1.066587448E0
1.576798232E0,5.321250111E-2,-1.286037445E0,1.066587448E0
1.596798232E0,1.095324993E0,-1.164212465E0,8.777999878E-1
1.616798232E0,1.095324993E0,-1.164212465E0,8.777999878E-1
1.636798232E0,1.038125038E0,-1.013100028E0,1.229249954E0
1.636798232E0,1.038125038E0,-1.013100028E0,1.229249954E0
1.676798232E0,1.038125038E0,-1.013100028E0,1.229249954E0
1.696798232E0,1.038125038E0,-1.013100028E0,1.229249954E0
1.716798232E0,1.038125038E0,-1.013100028E0,1.229249954E0
1.736798232E0,-3.290374875E-1,5.391374826E-1,3.903212547E0
1.756798232E0,-3.290374875E-1,5.391374826E-1,3.903212547E0
1.776798232E0,-3.698749840E-1,8.359999955E-2,3.619824886E0
1.796798232E0,-3.698749840E-1,8.359999955E-2,3.619824886E0
1.816798232E0,-3.698749840E-1,8.359999955E-2,3.619824886E0
1.836798232E0,-7.892499864E-2,-6.667374969E-1,2.515837431E0
1.856798232E0,-7.892499864E-2,-6.667374969E-1,2.515837431E0
1.876798232E0,-7.892499864E-2,-6.667374969E-1,2.515837431E0
1.896798232E0,-7.892499864E-2,-6.667374969E-1,2.515837431E0
1.916798232E0,-7.892499864E-2,-6.667374969E-1,2.515837431E0
1.936798232E0,-7.892499864E-2,-6.667374969E-1,2.515837431E0
1.956798232E0,-7.892499864E-2,-6.667374969E-1,2.515837431E0
1.976798232E0,-1.102750003E-1,-1.056550026E0,2.450249940E-1
1.996798232E0,-1.102750003E-1,-1.056550026E0,2.450249940E-1
2.016798232E0,-1.102750003E-1,-1.056550026E0,2.450249940E-1
2.036798232E0,-1.102750003E-1,-1.056550026E0,2.450249940E-1
2.056798232E0,-1.102750003E-1,-1.056550026E0,2.450249940E-1
2.076798232E0,-2.708750069E-1,-1.725624949E-1,-1.790249944E-1
2.096798232E0,-2.708750069E-1,-1.725624949E-1,-1.790249944E-1
2.116798232E0,-2.000624985E-1,-1.028499976E-1,-2.282499969E-1
2.136798232E0,-2.000624985E-1,-1.028499976E-1,-2.282499969E-1
2.156798232E0,-2.000624985E-1,-1.028499976E-1,-2.282499969E-1
2.176798232E0,-7.246249914E-2,3.423750028E-2,-2.455749959E-1
2.196798232E0,-7.246249914E-2,3.423750028E-2,-2.455749959E-1
2.216798232E0,-1.777874976E-1,3.409999907E-1,-2.563000023E-1
2.236798232E0,-1.777874976E-1,3.409999907E-1,-2.563000023E-1
2.256798232E0,-1.777874976E-1,3.409999907E-1,-2.563000023E-1
2.276798232E0,-1.777874976E-1,3.409999907E-1,-2.563000023E-1
2.296798232E0,-1.777874976E-1,3.409999907E-1,-2.563000023E-1
2.316798232E0,-8.511249721E-2,-3.973750025E-2,-1.125437498E0
2.336798232E0,-8.511249721E-2,-3.973750025E-2,-1.125437498E0
2.356798232E0,-8.511249721E-2,-3.973750025E-2,-1.125437498E0
2.376798232E0,-8.511249721E-2,-3.973750025E-2,-1.125437498E0
2.396798232E0,-8.511249721E-2,-3.973750025E-2,-1.125437498E0
2.416798232E0,-2.025374919E-1,2.308624983E-1,-1.550312519E0
2.436798232E0,-2.025374919E-1,2.308624983E-1,-1.550312519E0
2.456798232E0,-1.887875050E-1,7.772874832E-1,-1.206837535E0
2.476798232E0,-1.887875050E-1,7.772874832E-1,-1.206837535E0
2.496798232E0,-1.887875050E-1,7.772874832E-1,-1.206837535E0
2.516798232E0,-1.887875050E-1,7.772874832E-1,-1.206837535E0
2.536798232E0,-1.887875050E-1,7.772874832E-1,-1.206837535E0
2.556798232E0,-1.011862516E0,1.121175051E0,-7.558375001E-1
2.576798232E0,-1.011862516E0,1.121175051E0,-7.558375001E-1
2.596798232E0,-1.003337502E0,1.148537517E0,-5.123249888E-1
2.616798232E0,-1.003337502E0,1.148537517E0,-5.123249888E-1
2.636798232E0,-1.003337502E0,1.148537517E0,-5.123249888E-1
2.656798232E0,-1.000587463E0,9.923374653E-1,-2.414499968E-1
2.676798232E0,-1.000587463E0,9.923374653E-1,-2.414499968E-1
2.696798232E0,-1.000587463E0,9.923374653E-1,-2.414499968E-1
2.716798232E0,-1.000587463E0,9.923374653E-1,-2.414499968E-1
2.736798232E0,-1.000587463E0,9.923374653E-1,-2.414499968E-1
2.756798232E0,-1.000587463E0,9.923374653E-1,-2.414499968E-1
2.776798232E0,-1.000587463E0,9.923374653E-1,-2.414499968E-1
2.796798232E0,-1.194875017E-1,-6.572499871E-2,-6.998749971E-1
2.816798232E0,-1.194875017E-1,-6.572499871E-2,-6.998749971E-1
2.836798232E0,-1.194875017E-1,-6.572499871E-2,-6.998749971E-1
2.856798232E0,-1.194875017E-1,-6.572499871E-2,-6.998749971E-1
2.876798232E0,-1.194875017E-1,-6.572499871E-2,-6.998749971E-1
2.896798232E0,-3.084124923E-1,4.556750059E-1,1.139050007E0
2.916798232E0,-3.084124923E-1,4.556750059E-1,1.139050007E0
2.936798232E0,-3.084124923E-1,4.556750059E-1,1.139050007E0
2.956798232E0,-3.084124923E-1,4.556750059E-1,1.139050007E0
2.976798232E0,-3.084124923E-1,4.556750059E-1,1.139050007E0
2.996798232E0,9.029625058E-1,1.416937470E0,3.395699978E0
3.016798232E0,9.029625058E-1,1.416937470E0,3.395699978E0
3.036798232E0,8.468624949E-1,7.922750115E-1,1.598574996E0
3.056798232E0,8.468624949E-1,7.922750115E-1,1.598574996E0
3.076798232E0,8.468624949E-1,7.922750115E-1,1.598574996E0
3.096798232E0,8.468624949E-1,7.922750115E-1,1.598574996E0
3.116798232E0,8.468624949E-1,7.922750115E-1,1.598574996E0
3.136798232E0,5.871250033E-1,-1.768800020E0,-9.347249866E-1
3.156798232E0,5.871250033E-1,-1.768800020E0,-9.347249866E-1
3.176798232E0,5.871250033E-1,-1.768800020E0,-9.347249866E-1
3.196798232E0,5.871250033E-1,-1.768800020E0,-9.347249866E-1
3.216798232E0,5.871250033E-1,-1.768800020E0,-9.347249866E-1
3.236798232E0,4.217812538E0,-5.479512691E0,-2.511574984E0
3.256798232E0,4.217812538E0,-5.479512691E0,-2.511574984E0
3.276798232E0,4.749937534E0,-3.939512491E0,-3.017849922E0
3.296798232E0,4.749937534E0,-3.939512491E0,-3.017849922E0
3.316798232E0,4.749937534E0,-3.939512491E0,-3.017849922E0
3.336798232E0,4.749937534E0,-3.939512491E0,-3.017849922E0
3.356798232E0,4.749937534E0,-3.939512491E0,-3.017849922E0
3.376798232E0,-1.384624988E-1,2.940574884E0,1.559525013E0
3.396798232E0,-1.384624988E-1,2.940574884E0,1.559525013E0
3.416798232E0,-1.384624988E-1,2.940574884E0,1.559525013E0
3.436798232E0,-1.384624988E-1,2.940574884E0,1.559525013E0
3.456798232E0,-1.384624988E-1,2.940574884E0,1.559525013E0
3.476798232E0,-4.747462273E0,5.305437565E0,2.808574915E0
3.496798232E0,-4.747462273E0,5.305437565E0,2.808574915E0
3.516798232E0,-2.379987478E0,3.770524979E0,2.327049971E0
3.536798232E0,-2.379987478E0,3.770524979E0,2.327049971E0
3.556798232E0,-2.379987478E0,3.770524979E0,2.327049971E0
3.576798232E0,-2.379987478E0,3.770524979E0,2.327049971E0
3.596798232E0,-2.379987478E0,3.770524979E0,2.327049971E0
3.616798232E0,-6.544449806E0,5.822024822E0,8.420775414E0
3.636798232E0,-6.544449806E0,5.822024822E0,8.420775414E0
3.656798232E0,-6.544449806E0,5.822024822E0,8.420775414E0
3.676798232E0,-6.544449806E0,5.822024822E0,8.420775414E0
3.696798232E0,-6.544449806E0,5.822024822E0,8.420775414E0
3.716798232E0,2.624325037E0,-2.146100044E0,1.358637452E0
3.736798232E0,2.624325037E0,-2.146100044E0,1.358637452E0
3.756798232E0,7.975000143E-1,-1.364549994E0,-2.601499856E-1
3.776798232E0,7.975000143E-1,-1.364549994E0,-2.601499856E-1
3.796798232E0,7.975000143E-1,-1.364549994E0,-2.601499856E-1
3.816798232E0,7.975000143E-1,-1.364549994E0,-2.601499856E-1
3.836798232E0,7.975000143E-1,-1.364549994E0,-2.601499856E-1
3.856798232E0,-7.260000110E-1,-3.310724974E0,-3.115887403E0
3.876798232E0,-7.260000110E-1,-3.310724974E0,-3.115887403E0
3.896798232E0,-7.260000110E-1,-3.310724974E0,-3.115887403E0
3.916798232E0,-7.260000110E-1,-3.310724974E0,-3.115887403E0
3.936798232E0,-7.260000110E-1,-3.310724974E0,-3.115887403E0
3.956798232E0,3.571974993E0,-1.238957500E1,-5.073199749E0
3.976798232E0,3.571974993E0,-1.238957500E1,-5.073199749E0
3.996798232E0,3.571974993E0,-1.238957500E1,-5.073199749E0
4.016798232E0,3.571974993E0,-1.238957500E1,-5.073199749E0
4.036798232E0,3.571974993E0,-1.238957500E1,-5.073199749E0
4.056798232E0,-1.139050007E0,2.875262499E0,1.419000030E0
4.076798232E0,-1.139050007E0,2.875262499E0,1.419000030E0
4.096798232E0,6.272200108E0,-1.995138741E1,-3.576787472E0
4.116798232E0,6.272200108E0,-1.995138741E1,-3.576787472E0
4.136798232E0,6.272200108E0,-1.995138741E1,-3.576787472E0
4.156798232E0,6.272200108E0,-1.995138741E1,-3.576787472E0
4.176798232E0,6.272200108E0,-1.995138741E1,-3.576787472E0
4.196798232E0,2.864812374E0,-1.144921207E1,-1.170537472E0
4.216798232E0,2.864812374E0,-1.144921207E1,-1.170537472E0
4.236798232E0,9.224874973E-1,-8.191699982E0,3.702875078E-1
4.256798232E0,9.224874973E-1,-8.191699982E0,3.702875078E-1
4.276798232E0,9.224874973E-1,-8.191699982E0,3.702875078E-1
4.296798232E0,-4.760524750E0,-4.845637321E0,2.719062567E0
4.316798232E0,-4.760524750E0,-4.845637321E0,2.719062567E0
4.336798232E0,3.869800091E0,-6.711512566E0,2.477750033E-1
4.356798232E0,3.869800091E0,-6.711512566E0,2.477750033E-1
4.376798232E0,3.869800091E0,-6.711512566E0,2.477750033E-1
4.396798232E0,3.869800091E0,-6.711512566E0,2.477750033E-1
4.416798232E0,3.869800091E0,-6.711512566E0,2.477750033E-1
4.436798232E0,5.146625042E-1,-2.377374887E0,-2.370774984E0
4.456798232E0,5.146625042E-1,-2.377374887E0,-2.370774984E0
4.476798232E0,5.146625042E-1,-2.377374887E0,-2.370774984E0
4.496798232E0,5.146625042E-1,-2.377374887E0,-2.370774984E0
4.516798232E0,5.146625042E-1,-2.377374887E0,-2.370774984E0
4.536798232E0,-4.685037613E0,1.650522423E1,5.166562557E0
4.556798232E0,-4.685037613E0,1.650522423E1,5.166562557E0
4.576798232E0,-4.485112667E0,1.175116253E1,3.934149981E0
4.596798232E0,-4.485112667E0,1.175116253E1,3.934149981E0
4.616798232E0,-4.485112667E0,1.175116253E1,3.934149981E0
4.636798232E0,-4.485112667E0,1.175116253E1,3.934149981E0
4.656798232E0,-4.485112667E0,1.175116253E1,3.934149981E0
4.676798232E0,-4.485112667E0,1.175116253E1,3.934149981E0
4.696798232E0,-4.485112667E0,1.175116253E1,3.934149981E0
4.716798232E0,-4.485112667E0,1.175116253E1,3.934149981E0
4.736798232E0,-4.485112667E0,1.175116253E1,3.934149981E0
4.756798232E0,-4.485112667E0,1.175116253E1,3.934149981E0
4.776798232E0,4.626874924E-1,1.254096222E1,3.046862602E0
4.796798232E0,4.626874924E-1,1.254096222E1,3.046862602E0
4.816798232E0,1.292225003E0,7.673737526E0,2.616212368E0
4.836798232E0,1.292225003E0,7.673737526E0,2.616212368E0
4.856798232E0,1.292225003E0,7.673737526E0,2.616212368E0
4.876798232E0,4.784862518E0,3.190000057E0,1.659350038E0
4.896798232E0,4.784862518E0,3.190000057E0,1.659350038E0
4.916798232E0,4.784862518E0,3.190000057E0,1.659350038E0
4.936798232E0,4.784862518E0,3.190000057E0,1.659350038E0
4.956798232E0,-3.528249860E-1,6.102250218E-1,2.958999872E-1
4.976798232E0,-3.528249860E-1,6.102250218E-1,2.958999872E-1
4.996798232E0,-3.528249860E-1,6.102250218E-1,2.958999872E-1
5.016798232E0,-8.850874901E-1,-2.263250053E-1,-1.306249946E-2
5.036798232E0,-8.850874901E-1,-2.263250053E-1,-1.306249946E-2
5.056798232E0,-8.850874901E-1,-2.263250053E-1,-1.306249946E-2
5.076798232E0,-8.850874901E-1,-2.263250053E-1,-1.306249946E-2
5.096798232E0,-8.850874901E-1,-2.263250053E-1,-1.306249946E-2
5.116798232E0,-6.737499684E-2,-1.110450029E0,2.444749922E-1
5.136798232E0,-6.737499684E-2,-1.110450029E0,2.444749922E-1
5.156798232E0,5.803874731E-1,-2.309587479E0,-4.346374869E-1
5.176798232E0,5.803874731E-1,-2.309587479E0,-4.346374869E-1
5.196798232E0,5.803874731E-1,-2.309587479E0,-4.346374869E-1
5.216798232E0,5.803874731E-1,-2.309587479E0,-4.346374869E-1
5.236798232E0,5.803874731E-1,-2.309587479E0,-4.346374869E-1
5.256798232E0,6.280999780E-1,-5.591024876E0,-2.811599970E0
5.276798232E0,6.280999780E-1,-5.591024876E0,-2.811599970E0
5.296798232E0,-1.322474957E0,-2.310687542E0,-1.125162482E0
5.316798232E0,-1.322474957E0,-2.310687542E0,-1.125162482E0
5.336798232E0,-1.322474957E0,-2.310687542E0,-1.125162482E0
5.356798232E0,-8.224012375E0,2.684000134E-1,-9.062625170E-1
5.376798232E0,-8.224012375E0,2.684000134E-1,-9.062625170E-1
5.396798232E0,-6.805562496E0,5.809925079E0,1.487475038E0
5.416798232E0,-6.805562496E0,5.809925079E0,1.487475038E0
5.436798232E0,-6.805562496E0,5.809925079E0,1.487475038E0
5.456798232E0,-6.805562496E0,5.809925079E0,1.487475038E0
5.476798232E0,-6.805562496E0,5.809925079E0,1.487475038E0
5.496798232E0,-3.715662479E0,3.666574955E0,2.520925045E0
5.516798232E0,-3.715662479E0,3.666574955E0,2.520925045E0
5.536798232E0,-9.216487885E0,6.592162609E0,1.078563786E1
5.556798232E0,-9.216487885E0,6.592162609E0,1.078563786E1
5.576798232E0,-9.216487885E0,6.592162609E0,1.078563786E1
5.596798232E0,5.694012642E0,-7.581062317E0,2.182399988E0
5.616798232E0,5.694012642E0,-7.581062317E0,2.182399988E0
5.636798232E0,3.069824934E0,-4.792699814E0,5.362499878E-2
5.656798232E0,3.069824934E0,-4.792699814E0,5.362499878E-2
5.676798232E0,3.069824934E0,-4.792699814E0,5.362499878E-2
5.696798232E0,-1.591699958E0,-1.057374999E-1,-1.988937497E0
5.716798232E0,-1.591699958E0,-1.057374999E-1,-1.988937497E0
5.736798232E0,-3.757874966E-1,-5.240125060E-1,-1.526112437E0
5.756798232E0,-3.757874966E-1,-5.240125060E-1,-1.526112437E0
5.776798232E0,-3.757874966E-1,-5.240125060E-1,-1.526112437E0
5.796798232E0,-3.757874966E-1,-5.240125060E-1,-1.526112437E0
5.816798232E0,-3.757874966E-1,-5.240125060E-1,-1.526112437E0
5.836798232E0,1.021762490E0,-1.138362503E1,-8.148937225E0
5.856798232E0,1.021762490E0,-1.138362503E1,-8.148937225E0
5.876798232E0,4.490337372E0,-1.205214977E1,-1.020800018E1
5.896798232E0,4.490337372E0,-1.205214977E1,-1.020800018E1
5.916798232E0,4.490337372E0,-1.205214977E1,-1.020800018E1
5.936798232E0,1.750237465E0,-1.312987447E0,-1.361799955E0
5.956798232E0,1.750237465E0,-1.312987447E0,-1.361799955E0
5.976798232E0,-2.452999949E-1,4.094887257E0,1.788324952E0
5.996798232E0,-2.452999949E-1,4.094887257E0,1.788324952E0
6.016798232E0,-2.452999949E-1,4.094887257E0,1.788324952E0
6.036798232E0,-2.452999949E-1,4.094887257E0,1.788324952E0
6.056798232E0,-2.452999949E-1,4.094887257E0,1.788324952E0
6.076798232E0,-1.901350021E0,7.252987385E0,2.898087502E0
6.096798232E0,-1.901350021E0,7.252987385E0,2.898087502E0
6.116798232E0,-1.901350021E0,7.252987385E0,2.898087502E0
6.136798232E0,-1.901350021E0,7.252987385E0,2.898087502E0
6.156798232E0,-1.901350021E0,7.252987385E0,2.898087502E0
6.176798232E0,1.515112519E0,1.358912468E0,2.512125075E-1
6.196798232E0,1.515112519E0,1.358912468E0,2.512125075E-1
6.216798232E0,1.036323738E1,-2.006262398E1,-9.664324760E0
6.236798232E0,1.036323738E1,-2.006262398E1,-9.664324760E0
6.256798232E0,1.036323738E1,-2.006262398E1,-9.664324760E0
6.276798232E0,1.036323738E1,-2.006262398E1,-9.664324760E0
6.296798232E0,1.036323738E1,-2.006262398E1,-9.664324760E0
6.316798232E0,1.597474933E0,1.924312472E0,3.019087553E0
6.336798232E0,1.597474933E0,1.924312472E0,3.019087553E0
6.356798232E0,1.597474933E0,1.924312472E0,3.019087553E0
6.376798232E0,1.597474933E0,1.924312472E0,3.019087553E0
6.396798232E0,1.597474933E0,1.924312472E0,3.019087553E0
6.416798232E0,2.495625019E-1,1.801800013E0,1.891037464E0
6.436798232E0,2.495625019E-1,1.801800013E0,1.891037464E0
6.456798232E0,-9.061250091E-2,1.179199934E0,6.478999853E-1
6.476798232E0,-9.061250091E-2,1.179199934E0,6.478999853E-1
6.496798232E0,-9.061250091E-2,1.179199934E0,6.478999853E-1
6.516798232E0,-9.061250091E-2,1.179199934E0,6.478999853E-1
6.536798232E0,-9.061250091E-2,1.179199934E0,6.478999853E-1
6.556798232E0,1.473999918E-1,-6.240849972E0,-4.476174831E0
6.576798232E0,1.473999918E-1,-6.240849972E0,-4.476174831E0
6.596798232E0,1.473999918E-1,-6.240849972E0,-4.476174831E0
6.616798232E0,1.473999918E-1,-6.240849972E0,-4.476174831E0
6.636798232E0,1.473999918E-1,-6.240849972E0,-4.476174831E0
6.656798232E0,-2.135512590E0,1.592387438E0,-6.381375194E-1
6.676798232E0,-2.135512590E0,1.592387438E0,-6.381375194E-1
6.696798232E0,-2.135512590E0,1.592387438E0,-6.381375194E-1
6.716798232E0,-2.135512590E0,1.592387438E0,-6.381375194E-1
6.736798232E0,-2.135512590E0,1.592387438E0,-6.381375194E-1
6.756798232E0,-2.188862562E0,6.448337555E0,7.196750045E-1
6.776798232E0,-2.188862562E0,6.448337555E0,7.196750045E-1
6.796798232E0,-8.944374919E-1,5.359612465E0,1.359187484E0
6.816798232E0,-8.944374919E-1,5.359612465E0,1.359187484E0
6.836798232E0,-8.944374919E-1,5.359612465E0,1.359187484E0
6.856798232E0,-8.944374919E-1,5.359612465E0,1.359187484E0
6.876798232E0,-8.944374919E-1,5.359612465E0,1.359187484E0
6.896798232E0,1.655637503E0,1.495312452E0,1.317249984E-1
6.916798232E0,1.655637503E0,1.495312452E0,1.317249984E-1
6.936798232E0,1.655637503E0,1.495312452E0,1.317249984E-1
6.956798232E0,1.655637503E0,1.495312452E0,1.317249984E-1
6.976798232E0,1.655637503E0,1.495312452E0,1.317249984E-1
6.996798232E0,-6.682500243E-2,1.585787535E0,-1.427250028E0
7.016798232E0,-6.682500243E-2,1.585787535E0,-1.427250028E0
7.036798232E0,-1.646562457E0,4.031774998E0,-1.055037498E0
7.036798232E0,-1.646562457E0,4.031774998E0,-1.055037498E0
7.076798232E0,-1.646562457E0,4.031774998E0,-1.055037498E0
7.096798232E0,-1.646562457E0,4.031774998E0,-1.055037498E0
7.116798232E0,-1.646562457E0,4.031774998E0,-1.055037498E0
7.136798232E0,-1.072499990E0,2.956662416E0,-2.461249977E-1
7.156798232E0,-1.072499990E0,2.956662416E0,-2.461249977E-1
7.176798232E0,-1.072499990E0,2.956662416E0,-2.461249977E-1
7.196798232E0,-1.072499990E0,2.956662416E0,-2.461249977E-1
7.216798232E0,-1.072499990E0,2.956662416E0,-2.461249977E-1
7.236798232E0,4.538874924E-1,2.480500042E-1,1.548799992E0
7.256798232E0,4.538874924E-1,2.480500042E-1,1.548799992E0
7.276798232E0,7.295749784E-1,-2.711499929E-1,1.595549941E0
7.296798232E0,7.295749784E-1,-2.711499929E-1,1.595549941E0
7.316798232E0,7.295749784E-1,-2.711499929E-1,1.595549941E0
7.336798232E0,7.295749784E-1,-2.711499929E-1,1.595549941E0
7.356798232E0,7.295749784E-1,-2.711499929E-1,1.595549941E0
7.376798232E0,7.295749784E-1,-2.711499929E-1,1.595549941E0
7.396798232E0,7.295749784E-1,-2.711499929E-1,1.595549941E0
7.416798232E0,7.295749784E-1,-2.711499929E-1,1.595549941E0
7.436798232E0,7.295749784E-1,-2.711499929E-1,1.595549941E0
7.456798232E0,7.295749784E-1,-2.711499929E-1,1.595549941E0
7.476798232E0,2.036374956E-1,2.845424891E0,-1.161599994E0
7.496798232E0,2.036374956E-1,2.845424891E0,-1.161599994E0
7.516798232E0,-7.961250097E-2,4.272812366E0,-2.562862396E0
7.536798232E0,-7.961250097E-2,4.272812366E0,-2.562862396E0
7.556798232E0,-7.961250097E-2,4.272812366E0,-2.562862396E0
7.576798232E0,-6.139374971E-1,5.040887356E0,-3.246512413E0
7.596798232E0,-6.139374971E-1,5.040887356E0,-3.246512413E0
7.616798232E0,-5.344625115E-1,3.908025026E0,-2.310687542E0
7.636798232E0,-5.344625115E-1,3.908025026E0,-2.310687542E0
7.656798232E0,-5.344625115E-1,3.908025026E0,-2.310687542E0
7.676798232E0,-5.344625115E-1,3.908025026E0,-2.310687542E0
7.696798232E0,-5.344625115E-1,3.908025026E0,-2.310687542E0
7.716798232E0,-5.344625115E-1,3.908025026E0,-2.310687542E0
7.736798232E0,-5.344625115E-1,3.908025026E0,-2.310687542E0
7.756798232E0,-5.344625115E-1,3.908025026E0,-2.310687542E0
7.776798232E0,-5.344625115E-1,3.908025026E0,-2.310687542E0
7.796798232E0,-5.344625115E-1,3.908025026E0,-2.310687542E0
7.816798232E0,1.868624985E-1,-6.784250140E-1,8.610249758E-1
7.836798232E0,1.868624985E-1,-6.784250140E-1,8.610249758E-1
7.856798232E0,5.059999824E-1,-1.105774999E0,5.389999747E-1
7.876798232E0,5.059999824E-1,-1.105774999E0,5.389999747E-1
7.896798232E0,5.059999824E-1,-1.105774999E0,5.389999747E-1
7.916798232E0,5.059999824E-1,-1.105774999E0,5.389999747E-1
7.936798232E0,5.059999824E-1,-1.105774999E0,5.389999747E-1
7.956798232E0,5.059999824E-1,-1.105774999E0,5.389999747E-1
7.976798232E0,5.059999824E-1,-1.105774999E0,5.389999747E-1
7.996798232E0,5.059999824E-1,-1.105774999E0,5.389999747E-1
8.016798232E0,5.059999824E-1,-1.105774999E0,5.389999747E-1
8.036798232E0,5.059999824E-1,-1.105774999E0,5.389999747E-1
8.056798232E0,3.704249859E-1,-2.055900097E0,1.203124970E-1
8.076798232E0,3.704249859E-1,-2.055900097E0,1.203124970E-1
8.096798232E0,3.704249859E-1,-2.055900097E0,1.203124970E-1
8.116798232E0,3.704249859E-1,-2.055900097E0,1.203124970E-1
8.136798232E0,3.704249859E-1,-2.055900097E0,1.203124970E-1
8.156798232E0,3.704249859E-1,-2.055900097E0,1.203124970E-1
8.176798232E0,3.704249859E-1,-2.055900097E0,1.203124970E-1
8.196798232E0,-6.875000000E-1,-2.171262503E0,1.770587444E0
8.216798232E0,-6.875000000E-1,-2.171262503E0,1.770587444E0
8.236798232E0,-8.492000103E-1,-1.967762470E0,2.221037388E0
8.256798232E0,-8.492000103E-1,-1.967762470E0,2.221037388E0
8.276798232E0,-8.492000103E-1,-1.967762470E0,2.221037388E0
8.296798232E0,-4.504500031E-1,-1.687950015E0,1.364825010E0
8.316798232E0,-4.504500031E-1,-1.687950015E0,1.364825010E0
8.336798232E0,-4.504500031E-1,-1.687950015E0,1.364825010E0
8.356798232E0,-4.504500031E-1,-1.687950015E0,1.364825010E0
8.376798232E0,-4.504500031E-1,-1.687950015E0,1.364825010E0
8.396798232E0,-4.504500031E-1,-1.687950015E0,1.364825010E0
8.416798232E0,-4.504500031E-1,-1.687950015E0,1.364825010E0
8.436798232E0,5.850625038E-1,-2.265587568E0,-1.363037467E0
8.456798232E0,5.850625038E-1,-2.265587568E0,-1.363037467E0
8.476798232E0,5.850625038E-1,-2.265587568E0,-1.363037467E0
8.496798232E0,5.850625038E-1,-2.265587568E0,-1.363037467E0
8.516798232E0,5.850625038E-1,-2.265587568E0,-1.363037467E0
8.536798232E0,7.108750194E-2,-1.580425024E0,-8.971874714E-1
8.556798232E0,7.108750194E-2,-1.580425024E0,-8.971874714E-1
8.576798232E0,-1.727000028E-1,-8.659750223E-1,-9.501249790E-1
8.596798232E0,-1.727000028E-1,-8.659750223E-1,-9.501249790E-1
8.616798232E0,-1.727000028E-1,-8.659750223E-1,-9.501249790E-1
8.636798232E0,-5.202999711E-1,-2.419999987E-2,-1.177412510E0
8.656798232E0,-5.202999711E-1,-2.419999987E-2,-1.177412510E0
8.676798232E0,5.028374791E-1,-3.808062553E0,-5.127375126E-1
8.696798232E0,5.028374791E-1,-3.808062553E0,-5.127375126E-1
8.716798232E0,5.028374791E-1,-3.808062553E0,-5.127375126E-1
8.736798232E0,5.028374791E-1,-3.808062553E0,-5.127375126E-1
8.756798232E0,5.028374791E-1,-3.808062553E0,-5.127375126E-1
8.776798232E0,4.779500067E-1,-2.036649942E0,1.499850035E0
8.796798232E0,4.779500067E-1,-2.036649942E0,1.499850035E0
8.816798232E0,4.779500067E-1,-2.036649942E0,1.499850035E0
8.836798232E0,4.779500067E-1,-2.036649942E0,1.499850035E0
8.856798232E0,4.779500067E-1,-2.036649942E0,1.499850035E0
8.876798232E0,6.527125239E-1,6.875000149E-2,2.577712536E0
8.896798232E0,6.527125239E-1,6.875000149E-2,2.577712536E0
8.916798232E0,6.527125239E-1,6.875000149E-2,2.577712536E0
8.936798232E0,6.527125239E-1,6.875000149E-2,2.577712536E0
8.956798232E0,6.527125239E-1,6.875000149E-2,2.577712536E0
8.976798232E0,6.527125239E-1,6.875000149E-2,2.577712536E0
8.996798232E0,6.527125239E-1,6.875000149E-2,2.577712536E0
9.016798232E0,3.408625126E-1,-8.159250021E-1,-3.062949896E0
9.036798232E0,3.408625126E-1,-8.159250021E-1,-3.062949896E0
9.056798232E0,3.408625126E-1,-8.159250021E-1,-3.062949896E0
9.076798232E0,3.408625126E-1,-8.159250021E-1,-3.062949896E0
9.096798232E0,3.408625126E-1,-8.159250021E-1,-3.062949896E0
9.116798232E0,-4.525400162E0,2.880349874E0,3.625875115E-1
9.136798232E0,-4.525400162E0,2.880349874E0,3.625875115E-1
9.156798232E0,-1.783100009E0,1.417487502E0,6.654999852E-1
9.176798232E0,-1.783100009E0,1.417487502E0,6.654999852E-1
9.196798232E0,-1.783100009E0,1.417487502E0,6.654999852E-1
9.216798232E0,-1.783100009E0,1.417487502E0,6.654999852E-1
9.236798232E0,-1.783100009E0,1.417487502E0,6.654999852E-1
9.256798232E0,6.984999776E-2,-1.621125042E-1,2.226537466E0
9.276798232E0,6.984999776E-2,-1.621125042E-1,2.226537466E0
9.296798232E0,3.681287527E0,-7.760499716E-1,-7.519875169E-1
9.316798232E0,3.681287527E0,-7.760499716E-1,-7.519875169E-1
9.336798232E0,3.681287527E0,-7.760499716E-1,-7.519875169E-1
9.356798232E0,3.106812477E0,-3.055250049E-1,-2.125887394E0
9.376798232E0,3.106812477E0,-3.055250049E-1,-2.125887394E0
9.396798232E0,3.106812477E0,-3.055250049E-1,-2.125887394E0
9.416798232E0,3.106812477E0,-3.055250049E-1,-2.125887394E0
9.436798232E0,3.106812477E0,-3.055250049E-1,-2.125887394E0
9.456798232E0,-3.919437408E0,9.859575272E0,-1.926100016E0
9.476798232E0,-3.919437408E0,9.859575272E0,-1.926100016E0
9.496798232E0,-4.417600155E0,6.802674770E0,-1.487887502E0
9.516798232E0,-4.417600155E0,6.802674770E0,-1.487887502E0
9.536798232E0,-4.417600155E0,6.802674770E0,-1.487887502E0
9.556798232E0,-4.417600155E0,6.802674770E0,-1.487887502E0
9.576798232E0,-4.417600155E0,6.802674770E0,-1.487887502E0
9.596798232E0,3.306187391E0,-3.945562363E0,2.252662420E0
9.616798232E0,3.306187391E0,-3.945562363E0,2.252662420E0
9.636798232E0,2.316324949E0,-3.864574909E0,3.353212595E0
9.656798232E0,2.316324949E0,-3.864574909E0,3.353212595E0
9.676798232E0,2.316324949E0,-3.864574909E0,3.353212595E0
9.696798232E0,2.028262377E0,-2.651000023E0,2.441037416E0
9.716798232E0,2.028262377E0,-2.651000023E0,2.441037416E0
9.736798232E0,1.685199976E0,-1.906299949E0,1.669662476E0
9.756798232E0,1.685199976E0,-1.906299949E0,1.669662476E0
9.776798232E0,1.685199976E0,-1.906299949E0,1.669662476E0
9.796798232E0,1.685199976E0,-1.906299949E0,1.669662476E0
9.816798232E0,1.685199976E0,-1.906299949E0,1.669662476E0
9.836798232E0,1.216819954E1,-1.228232479E1,8.951662064E0
9.856798232E0,1.216819954E1,-1.228232479E1,8.951662064E0
9.876798232E0,1.216819954E1,-1.228232479E1,8.951662064E0
9.896798232E0,1.216819954E1,-1.228232479E1,8.951662064E0
9.916798232E0,1.216819954E1,-1.228232479E1,8.951662064E0
9.936798232E0,-1.239150047E0,5.282750130E-1,4.032875001E-1
9.956798232E0,-1.239150047E0,5.282750130E-1,4.032875001E-1
9.976798232E0,-3.720337391E0,2.673825026E0,-1.062875032E0
9.996798232E0,-3.720337391E0,2.673825026E0,-1.062875032E0
1.001679823E1,-2.190787554E0,3.039025068E0,-1.610949993E0
1.003679823E1,-2.190787554E0,3.039025068E0,-1.610949993E0
1.005679823E1,-2.190787554E0,3.039025068E0,-1.610949993E0
1.007679823E1,-2.035274982E0,3.771212578E0,-1.693724990E0
1.009679823E1,-2.035274982E0,3.771212578E0,-1.693724990E0
1.011679823E1,-2.035274982E0,3.771212578E0,-1.693724990E0
1.013679823E1,-2.035274982E0,3.771212578E0,-1.693724990E0
1.015679823E1,-2.035274982E0,3.771212578E0,-1.693724990E0
1.017679823E1,-3.036000013E0,3.325162411E0,-1.392737508E0
1.019679823E1,-3.036000013E0,3.325162411E0,-1.392737508E0
1.021679823E1,1.652474999E0,2.696512461E0,5.788749829E-2
1.023679823E1,1.652474999E0,2.696512461E0,5.788749829E-2
1.025679823E1,1.652474999E0,2.696512461E0,5.788749829E-2
1.027679823E1,1.652474999E0,2.696512461E0,5.788749829E-2
1.029679823E1,1.652474999E0,2.696512461E0,5.788749829E-2
1.031679823E1,1.261562467E0,1.380774975E0,1.829162478E0
1.033679823E1,1.261562467E0,1.380774975E0,1.829162478E0
1.035679823E1,1.261562467E0,1.380774975E0,1.829162478E0
1.037679823E1,1.261562467E0,1.380774975E0,1.829162478E0
1.039679823E1,1.261562467E0,1.380774975E0,1.829162478E0
1.041679823E1,1.024787545E0,3.722812414E0,-3.551625013E0
1.043679823E1,1.024787545E0,3.722812414E0,-3.551625013E0
1.045679823E1,1.024787545E0,3.722812414E0,-3.551625013E0
1.047679823E1,1.024787545E0,3.722812414E0,-3.551625013E0
1.049679823E1,1.024787545E0,3.722812414E0,-3.551625013E0
1.051679823E1,2.419999987E-2,1.520749927E-1,1.041562438E0
1.053679823E1,2.419999987E-2,1.520749927E-1,1.041562438E0
1.055679823E1,-4.621374905E-1,1.069749966E-1,1.698400021E0
1.057679823E1,-4.621374905E-1,1.069749966E-1,1.698400021E0
1.059679823E1,-4.621374905E-1,1.069749966E-1,1.698400021E0
1.061679823E1,-4.621374905E-1,1.069749966E-1,1.698400021E0
1.063679823E1,-4.621374905E-1,1.069749966E-1,1.698400021E0
1.065679823E1,-1.863124967E-1,5.165874958E-1,3.310037374E0
1.067679823E1,-1.863124967E-1,5.165874958E-1,3.310037374E0
1.069679823E1,1.731124967E-1,9.327999949E-1,3.128537416E0
1.071679823E1,1.731124967E-1,9.327999949E-1,3.128537416E0
1.073679823E1,1.731124967E-1,9.327999949E-1,3.128537416E0
1.075679823E1,2.146237373E0,1.509612441E0,1.865462542E0
1.077679823E1,2.146237373E0,1.509612441E0,1.865462542E0
1.079679823E1,2.047650099E0,3.097874880E0,-2.885437489E0
1.081679823E1,2.047650099E0,3.097874880E0,-2.885437489E0
1.083679823E1,2.047650099E0,3.097874880E0,-2.885437489E0
1.085679823E1,2.047650099E0,3.097874880E0,-2.885437489E0
1.087679823E1,2.047650099E0,3.097874880E0,-2.885437489E0
1.089679823E1,-1.403187513E0,8.162000179E-1,-4.435750008E0
1.091679823E1,-1.403187513E0,8.162000179E-1,-4.435750008E0
1.093679823E1,-1.403187513E0,8.162000179E-1,-4.435750008E0
1.095679823E1,-1.403187513E0,8.162000179E-1,-4.435750008E0
1.097679823E1,-1.403187513E0,8.162000179E-1,-4.435750008E0
1.099679823E1,-1.544124961E0,1.193087459E0,8.662500232E-2
1.101679823E1,-1.544124961E0,1.193087459E0,8.662500232E-2
1.103679823E1,-4.546575069E0,7.565249801E-1,1.294700027E0
1.105679823E1,-4.546575069E0,7.565249801E-1,1.294700027E0
1.107679823E1,-4.546575069E0,7.565249801E-1,1.294700027E0
1.109679823E1,-4.546575069E0,7.565249801E-1,1.294700027E0
1.111679823E1,-4.546575069E0,7.565249801E-1,1.294700027E0
1.113679823E1,-5.726875067E-1,6.467999816E-1,2.399237394E0
1.115679823E1,-5.726875067E-1,6.467999816E-1,2.399237394E0
1.117679823E1,8.256874681E-1,7.737125158E-1,2.854224920E0
1.119679823E1,8.256874681E-1,7.737125158E-1,2.854224920E0
1.121679823E1,8.256874681E-1,7.737125158E-1,2.854224920E0
1.123679823E1,-3.996299982E0,-2.789599895E0,-1.138912439E0
1.125679823E1,-3.996299982E0,-2.789599895E0,-1.138912439E0
1.127679823E1,-3.996299982E0,-2.789599895E0,-1.138912439E0
1.129679823E1,-3.996299982E0,-2.789599895E0,-1.138912439E0
1.131679823E1,-3.996299982E0,-2.789599895E0,-1.138912439E0
1.133679823E1,4.253562450E0,6.652112484E0,-2.025099993E0
1.135679823E1,4.253562450E0,6.652112484E0,-2.025099993E0
1.137679823E1,1.411299944E0,3.124687433E0,-3.503499925E-1
1.139679823E1,1.411299944E0,3.124687433E0,-3.503499925E-1
1.141679823E1,1.411299944E0,3.124687433E0,-3.503499925E-1
1.143679823E1,1.411299944E0,3.124687433E0,-3.503499925E-1
1.145679823E1,1.411299944E0,3.124687433E0,-3.503499925E-1
1.147679823E1,3.385249972E-1,1.495862484E0,9.799624681E-1
1.149679823E1,3.385249972E-1,1.495862484E0,9.799624681E-1
1.151679823E1,3.385249972E-1,1.495862484E0,9.799624681E-1
1.153679823E1,3.385249972E-1,1.495862484E0,9.799624681E-1
1.155679823E1,3.385249972E-1,1.495862484E0,9.799624681E-1
1.157679823E1,3.643749952E-1,1.739099979E0,1.675712466E0
1.159679823E1,3.643749952E-1,1.739099979E0,1.675712466E0
1.161679823E1,2.417249978E-1,-5.922124982E-1,3.317874968E-1
1.163679823E1,2.417249978E-1,-5.922124982E-1,3.317874968E-1
1.165679823E1,-1.544124931E-1,-2.514187574E0,-1.356850028E0
1.167679823E1,-1.544124931E-1,-2.514187574E0,-1.356850028E0
1.169679823E1,-1.544124931E-1,-2.514187574E0,-1.356850028E0
1.171679823E1,-4.169000089E-1,-2.915962458E0,-2.379299879E0
1.173679823E1,-4.169000089E-1,-2.915962458E0,-2.379299879E0
1.175679823E1,-4.169000089E-1,-2.915962458E0,-2.379299879E0
1.177679823E1,-4.169000089E-1,-2.915962458E0,-2.379299879E0
1.179679823E1,-4.169000089E-1,-2.915962458E0,-2.379299879E0
1.181679823E1,-8.280249834E-1,-1.629099965E0,-2.031837463E0
1.183679823E1,-8.280249834E-1,-1.629099965E0,-2.031837463E0
1.185679823E1,-8.184000254E-1,-4.787749946E-1,-2.341624945E-1
1.187679823E1,-8.184000254E-1,-4.787749946E-1,-2.341624945E-1
1.189679823E1,-8.184000254E-1,-4.787749946E-1,-2.341624945E-1
1.191679823E1,-8.184000254E-1,-4.787749946E-1,-2.341624945E-1
1.193679823E1,-8.184000254E-1,-4.787749946E-1,-2.341624945E-1
1.195679823E1,-8.184000254E-1,-4.787749946E-1,-2.341624945E-1
1.197679823E1,-8.184000254E-1,-4.787749946E-1,-2.341624945E-1
1.199679823E1,-1.971749961E-1,2.233274937E0,3.355412483E0
1.201679823E1,-1.971749961E-1,2.233274937E0,3.355412483E0
1.203679823E1,-1.971749961E-1,2.233274937E0,3.355412483E0
1.205679823E1,-5.513750017E-2,3.490437508E0,3.319799900E0
1.207679823E1,-5.513750017E-2,3.490437508E0,3.319799900E0
1.209679823E1,-5.513750017E-2,3.490437508E0,3.319799900E0
1.211679823E1,-5.513750017E-2,3.490437508E0,3.319799900E0
1.213679823E1,-5.513750017E-2,3.490437508E0,3.319799900E0
1.215679823E1,-5.513750017E-2,3.490437508E0,3.319799900E0
1.217679823E1,-5.513750017E-2,3.490437508E0,3.319799900E0
1.219679823E1,-4.894999981E0,-6.299012661E0,-9.366912842E0
1.221679823E1,-4.894999981E0,-6.299012661E0,-9.366912842E0
1.223679823E1,-4.894999981E0,-6.299012661E0,-9.366912842E0
1.225679823E1,-4.894999981E0,-6.299012661E0,-9.366912842E0
1.227679823E1,-4.894999981E0,-6.299012661E0,-9.366912842E0
1.229679823E1,1.664712548E0,4.018024921E0,4.320112705E0
1.231679823E1,1.664712548E0,4.018024921E0,4.320112705E0
1.233679823E1,1.945762515E0,4.825287342E0,3.752512455E0
1.235679823E1,1.945762515E0,4.825287342E0,3.752512455E0
1.237679823E1,1.945762515E0,4.825287342E0,3.752512455E0
1.239679823E1,3.869937420E0,5.632549763E0,3.559462547E0
1.241679823E1,3.869937420E0,5.632549763E0,3.559462547E0
1.243679823E1,5.612887383E0,3.817549944E0,2.434849977E0
1.243679823E1,5.612887383E0,3.817549944E0,2.434849977E0
1.247679823E1,5.612887383E0,3.817549944E0,2.434849977E0
1.249679823E1,5.612887383E0,3.817549944E0,2.434849977E0
1.251679823E1,5.612887383E0,3.817549944E0,2.434849977E0
1.253679823E1,3.291749954E-1,-2.668600082E0,-2.567950010E0
1.255679823E1,3.291749954E-1,-2.668600082E0,-2.567950010E0
1.257679823E1,3.291749954E-1,-2.668600082E0,-2.567950010E0
1.259679823E1,3.291749954E-1,-2.668600082E0,-2.567950010E0
1.261679823E1,3.291749954E-1,-2.668600082E0,-2.567950010E0
1.263679823E1,1.254000068E-1,-2.965462446E0,-4.238025188E0
1.265679823E1,1.254000068E-1,-2.965462446E0,-4.238025188E0
1.267679823E1,1.989624947E-1,-1.993749976E0,-2.776124954E0
1.269679823E1,1.989624947E-1,-1.993749976E0,-2.776124954E0
1.271679823E1,1.989624947E-1,-1.993749976E0,-2.776124954E0
1.271679823E1,5.674625039E-1,-1.053799987E0,-3.449875116E-1
1.275679823E1,5.674625039E-1,-1.053799987E0,-3.449875116E-1
1.277679823E1,1.389299989E0,3.020874858E-1,1.781999946E0
1.279679823E1,1.389299989E0,3.020874858E-1,1.781999946E0
1.281679823E1,1.389299989E0,3.020874858E-1,1.781999946E0
1.283679823E1,1.389299989E0,3.020874858E-1,1.781999946E0
1.285679823E1,1.389299989E0,3.020874858E-1,1.781999946E0
1.287679823E1,1.099449992E0,1.366062522E0,3.153424978E0
1.289679823E1,1.099449992E0,1.366062522E0,3.153424978E0
1.291679823E1,1.099449992E0,1.366062522E0,3.153424978E0
1.293679823E1,1.099449992E0,1.366062522E0,3.153424978E0
1.295679823E1,1.099449992E0,1.366062522E0,3.153424978E0
1.297679823E1,1.099449992E0,1.366062522E0,3.153424978E0
1.299679823E1,1.099449992E0,1.366062522E0,3.153424978E0
1.301679823E1,-4.135174751E0,-3.445887566E0,1.988937497E0
1.303679823E1,-4.135174751E0,-3.445887566E0,1.988937497E0
1.305679823E1,-5.143324852E0,-7.301387310E0,-3.141874969E-1
1.307679823E1,-5.143324852E0,-7.301387310E0,-3.141874969E-1
1.309679823E1,-5.143324852E0,-7.301387310E0,-3.141874969E-1
1.311679823E1,-3.497174978E0,-5.219362259E0,-2.490812540E0
1.313679823E1,-3.497174978E0,-5.219362259E0,-2.490812540E0
1.315679823E1,-3.497174978E0,-5.219362259E0,-2.490812540E0
1.317679823E1,-3.497174978E0,-5.219362259E0,-2.490812540E0
1.319679823E1,-3.497174978E0,-5.219362259E0,-2.490812540E0
1.321679823E1,-4.134624898E-1,-8.244500160E-1,-2.841300011E0
1.323679823E1,-4.134624898E-1,-8.244500160E-1,-2.841300011E0
1.325679823E1,-3.746874928E-1,-4.875749946E-1,-2.239325047E0
1.327679823E1,-3.746874928E-1,-4.875749946E-1,-2.239325047E0
1.329679823E1,-3.746874928E-1,-4.875749946E-1,-2.239325047E0
1.331679823E1,-3.746874928E-1,-4.875749946E-1,-2.239325047E0
1.333679823E1,-3.746874928E-1,-4.875749946E-1,-2.239325047E0
1.335679823E1,5.116375089E-1,4.285874963E-1,6.927250028E-1
1.337679823E1,5.116375089E-1,4.285874963E-1,6.927250028E-1
1.339679823E1,1.236537457E0,1.667737484E0,9.183624983E-1
1.339679823E1,1.236537457E0,1.667737484E0,9.183624983E-1
1.343679823E1,1.236537457E0,1.667737484E0,9.183624983E-1
1.345679823E1,1.656049967E0,2.252112389E0,1.148399949E0
1.347679823E1,1.656049967E0,2.252112389E0,1.148399949E0
1.349679823E1,1.656049967E0,2.252112389E0,1.148399949E0
1.351679823E1,1.656049967E0,2.252112389E0,1.148399949E0
1.353679823E1,1.656049967E0,2.252112389E0,1.148399949E0
1.355679823E1,1.656049967E0,2.252112389E0,1.148399949E0
1.357679823E1,1.656049967E0,2.252112389E0,1.148399949E0
1.359679823E1,1.113750041E-2,-6.567000151E-1,7.147250175E-1
1.361679823E1,1.113750041E-2,-6.567000151E-1,7.147250175E-1
1.363679823E1,1.113750041E-2,-6.567000151E-1,7.147250175E-1
1.365679823E1,1.113750041E-2,-6.567000151E-1,7.147250175E-1
1.367679823E1,1.113750041E-2,-6.567000151E-1,7.147250175E-1
1.369679823E1,-1.527899981E0,-2.659250021E0,-2.347124964E-1
1.371679823E1,-1.527899981E0,-2.659250021E0,-2.347124964E-1
1.373679823E1,-1.638175011E0,-2.310962439E0,-7.071624994E-1
1.375679823E1,-1.638175011E0,-2.310962439E0,-7.071624994E-1
1.377679823E1,-1.638175011E0,-2.310962439E0,-7.071624994E-1
1.379679823E1,-1.638175011E0,-2.310962439E0,-7.071624994E-1
1.381679823E1,-1.638175011E0,-2.310962439E0,-7.071624994E-1
1.383679823E1,-2.171124965E-1,-7.955750227E-1,-1.386962533E0
1.385679823E1,-2.171124965E-1,-7.955750227E-1,-1.386962533E0
1.387679823E1,-2.171124965E-1,-7.955750227E-1,-1.386962533E0
1.389679823E1,-2.171124965E-1,-7.955750227E-1,-1.386962533E0
1.391679823E1,-2.171124965E-1,-7.955750227E-1,-1.386962533E0
1.393679823E1,-2.171124965E-1,-7.955750227E-1,-1.386962533E0
1.395679823E1,-2.171124965E-1,-7.955750227E-1,-1.386962533E0
1.397679823E1,2.048475027E0,1.444574952E0,3.863750100E-1
1.399679823E1,2.048475027E0,1.444574952E0,3.863750100E-1
1.401679823E1,2.048475027E0,1.444574952E0,3.863750100E-1
1.403679823E1,1.544124931E-1,4.390375018E-1,8.320124745E-1
1.405679823E1,1.544124931E-1,4.390375018E-1,8.320124745E-1
1.407679823E1,2.997500002E-1,6.391000152E-1,1.686987519E0
1.409679823E1,2.997500002E-1,6.391000152E-1,1.686987519E0
1.411679823E1,2.997500002E-1,6.391000152E-1,1.686987519E0
1.413679823E1,2.997500002E-1,6.391000152E-1,1.686987519E0
1.415679823E1,2.997500002E-1,6.391000152E-1,1.686987519E0
1.417679823E1,-3.186287403E0,-4.653824806E0,1.378437519E0
1.419679823E1,-3.186287403E0,-4.653824806E0,1.378437519E0
1.421679823E1,-2.892862558E0,-3.461012363E0,-8.327000141E-1
1.423679823E1,-2.892862558E0,-3.461012363E0,-8.327000141E-1
1.425679823E1,-2.892862558E0,-3.461012363E0,-8.327000141E-1
1.427679823E1,2.047100067E0,1.127087474E0,-6.302999854E-1
1.429679823E1,2.047100067E0,1.127087474E0,-6.302999854E-1
1.431679823E1,-1.453374922E-1,-3.473937511E0,1.362074971E0
1.433679823E1,-1.453374922E-1,-3.473937511E0,1.362074971E0
1.435679823E1,-1.453374922E-1,-3.473937511E0,1.362074971E0
1.437679823E1,-1.453374922E-1,-3.473937511E0,1.362074971E0
1.439679823E1,-1.453374922E-1,-3.473937511E0,1.362074971E0
1.441679823E1,6.234250069E-1,-1.825037479E0,1.497787476E0
1.443679823E1,6.234250069E-1,-1.825037479E0,1.497787476E0
1.445679823E1,-6.426749825E-1,1.059849977E0,-5.398250222E-1
1.447679823E1,-6.426749825E-1,1.059849977E0,-5.398250222E-1
1.449679823E1,-6.426749825E-1,1.059849977E0,-5.398250222E-1
1.451679823E1,5.655375123E-1,2.340937376E0,-1.459287524E0
1.453679823E1,5.655375123E-1,2.340937376E0,-1.459287524E0
1.455679823E1,-2.886124849E-1,2.153387547E0,-2.712049961E0
1.457679823E1,-2.886124849E-1,2.153387547E0,-2.712049961E0
1.459679823E1,-2.886124849E-1,2.153387547E0,-2.712049961E0
1.461679823E1,-2.886124849E-1,2.153387547E0,-2.712049961E0
1.463679823E1,-2.886124849E-1,2.153387547E0,-2.712049961E0
1.465679823E1,-1.093400002E0,4.229499996E-1,-4.634574890E0
1.467679823E1,-1.093400002E0,4.229499996E-1,-4.634574890E0
1.469679823E1,-1.093400002E0,4.229499996E-1,-4.634574890E0
1.471679823E1,-1.093400002E0,4.229499996E-1,-4.634574890E0
1.473679823E1,-1.093400002E0,4.229499996E-1,-4.634574890E0
1.475679823E1,1.083775043E0,1.005949974E0,-5.798375010E-1
1.477679823E1,1.083775043E0,1.005949974E0,-5.798375010E-1
1.479679823E1,1.624837518E0,2.226949930E0,1.743637443E0
1.481679823E1,1.624837518E0,2.226949930E0,1.743637443E0
1.483679823E1,1.624837518E0,2.226949930E0,1.743637443E0
1.485679823E1,1.624837518E0,2.226949930E0,1.743637443E0
1.487679823E1,1.624837518E0,2.226949930E0,1.743637443E0
1.489679823E1,7.189875245E-1,5.878124833E-1,2.487237453E0
1.491679823E1,7.189875245E-1,5.878124833E-1,2.487237453E0
1.493679823E1,7.189875245E-1,5.878124833E-1,2.487237453E0
1.495679823E1,7.189875245E-1,5.878124833E-1,2.487237453E0
1.497679823E1,7.189875245E-1,5.878124833E-1,2.487237453E0
1.499679823E1,2.724287510E0,5.658675194E0,-1.118149996E0
1.501679823E1,2.724287510E0,5.658675194E0,-1.118149996E0
1.503679823E1,2.724287510E0,5.658675194E0,-1.118149996E0
1.505679823E1,2.724287510E0,5.658675194E0,-1.118149996E0
1.507679823E1,2.724287510E0,5.658675194E0,-1.118149996E0
1.509679823E1,8.086649895E0,1.733723831E1,-1.286766243E1
1.511679823E1,8.086649895E0,1.733723831E1,-1.286766243E1
1.513679823E1,7.079599857E0,1.550106239E1,-1.182678699E1
1.515679823E1,7.079599857E0,1.550106239E1,-1.182678699E1
1.517679823E1,7.079599857E0,1.550106239E1,-1.182678699E1
1.519679823E1,7.079599857E0,1.550106239E1,-1.182678699E1
1.521679823E1,7.079599857E0,1.550106239E1,-1.182678699E1
1.523679823E1,2.704900026E0,9.661299706E0,-5.217575073E0
1.525679823E1,2.704900026E0,9.661299706E0,-5.217575073E0
1.527679823E1,2.704900026E0,9.661299706E0,-5.217575073E0
1.529679823E1,2.704900026E0,9.661299706E0,-5.217575073E0
1.531679823E1,2.704900026E0,9.661299706E0,-5.217575073E0
1.533679823E1,-1.919362545E0,5.019575119E0,-6.169899940E0
1.535679823E1,-1.919362545E0,5.019575119E0,-6.169899940E0
1.537679823E1,-1.783924937E0,2.345750093E0,-6.844062328E0
1.539679823E1,-1.783924937E0,2.345750093E0,-6.844062328E0
1.541679823E1,-1.783924937E0,2.345750093E0,-6.844062328E0
1.543679823E1,-1.783924937E0,2.345750093E0,-6.844062328E0
1.545679823E1,-1.783924937E0,2.345750093E0,-6.844062328E0
1.547679823E1,1.168750048E0,2.674375057E0,-6.175125241E-1
1.549679823E1,1.168750048E0,2.674375057E0,-6.175125241E-1
1.551679823E1,2.408999950E-1,1.455437541E0,2.621850014E0
1.553679823E1,2.408999950E-1,1.455437541E0,2.621850014E0
1.555679823E1,2.408999950E-1,1.455437541E0,2.621850014E0
1.557679823E1,2.723325014E0,2.688537598E0,3.261637449E0
1.559679823E1,2.723325014E0,2.688537598E0,3.261637449E0
1.561679823E1,2.723325014E0,2.688537598E0,3.261637449E0
1.563679823E1,2.723325014E0,2.688537598E0,3.261637449E0
1.565679823E1,2.723325014E0,2.688537598E0,3.261637449E0
1.567679823E1,2.723325014E0,2.688537598E0,3.261637449E0
1.569679823E1,2.723325014E0,2.688537598E0,3.261637449E0
1.571679823E1,1.057182503E1,1.423358727E1,-1.006293774E1
1.573679823E1,1.057182503E1,1.423358727E1,-1.006293774E1
1.575679823E1,1.057182503E1,1.423358727E1,-1.006293774E1
1.577679823E1,1.057182503E1,1.423358727E1,-1.006293774E1
1.579679823E1,1.057182503E1,1.423358727E1,-1.006293774E1
1.581679823E1,6.433899879E0,1.610303688E1,-8.969949722E0
1.583679823E1,6.433899879E0,1.610303688E1,-8.969949722E0
1.585679823E1,5.483500004E0,1.280798721E1,-7.287912369E0
1.587679823E1,5.483500004E0,1.280798721E1,-7.287912369E0
1.589679823E1,5.483500004E0,1.280798721E1,-7.287912369E0
1.591679823E1,2.359637499E0,9.513899803E0,-5.275462627E0
1.593679823E1,2.359637499E0,9.513899803E0,-5.275462627E0
1.595679823E1,2.359637499E0,9.513899803E0,-5.275462627E0
1.597679823E1,2.359637499E0,9.513899803E0,-5.275462627E0
1.599679823E1,2.359637499E0,9.513899803E0,-5.275462627E0
1.601679823E1,2.359637499E0,9.513899803E0,-5.275462627E0
1.603679823E1,2.359637499E0,9.513899803E0,-5.275462627E0
1.605679823E1,8.061624765E-1,9.245499969E-1,-3.907474995E0
1.607679823E1,8.061624765E-1,9.245499969E-1,-3.907474995E0
1.609679823E1,1.510025024E0,-4.154287338E0,6.925874949E-1
1.611679823E1,1.510025024E0,-4.154287338E0,6.925874949E-1
1.613679823E1,1.510025024E0,-4.154287338E0,6.925874949E-1
1.615679823E1,3.642374873E-1,-5.108262539E0,6.396499872E-1
1.617679823E1,3.642374873E-1,-5.108262539E0,6.396499872E-1
1.619679823E1,1.030424953E0,-4.242424965E0,-1.744875014E-1
1.621679823E1,1.030424953E0,-4.242424965E0,-1.744875014E-1
1.623679823E1,8.271999955E-1,-3.667537451E0,-1.820500046E-1
1.625679823E1,8.271999955E-1,-3.667537451E0,-1.820500046E-1
1.627679823E1,8.271999955E-1,-3.667537451E0,-1.820500046E-1
1.629679823E1,-7.832000256E-1,-2.604112387E0,7.869125009E-1
1.631679823E1,-7.832000256E-1,-2.604112387E0,7.869125009E-1
1.633679823E1,-7.832000256E-1,-2.604112387E0,7.869125009E-1
1.635679823E1,-7.832000256E-1,-2.604112387E0,7.869125009E-1
1.637679823E1,-7.832000256E-1,-2.604112387E0,7.869125009E-1
1.639679823E1,1.371012449E0,2.181437492E0,-1.670074940E0
1.641679823E1,1.371012449E0,2.181437492E0,-1.670074940E0
1.643679823E1,1.371012449E0,2.181437492E0,-1.670074940E0
1.645679823E1,1.371012449E0,2.181437492E0,-1.670074940E0
1.647679823E1,1.371012449E0,2.181437492E0,-1.670074940E0
1.649679823E1,1.371012449E0,2.181437492E0,-1.670074940E0
1.651679823E1,1.371012449E0,2.181437492E0,-1.670074940E0
1.653679823E1,7.240750194E-1,1.017499994E-2,7.117000222E-1
1.655679823E1,7.240750194E-1,1.017499994E-2,7.117000222E-1
1.657679823E1,-1.331412435E0,-4.707999825E-1,1.290987492E0
1.659679823E1,-1.331412435E0,-4.707999825E-1,1.290987492E0
1.661679823E1,-1.331412435E0,-4.707999825E-1,1.290987492E0
1.663679823E1,-3.459362507E0,-1.883749962E0,2.804450035E0
1.665679823E1,-3.459362507E0,-1.883749962E0,2.804450035E0
1.667679823E1,-3.459362507E0,-1.883749962E0,2.804450035E0
1.669679823E1,-3.459362507E0,-1.883749962E0,2.804450035E0
1.671679823E1,-3.459362507E0,-1.883749962E0,2.804450035E0
1.673679823E1,-1.385587454E0,-1.859962463E0,-1.604212523E0
1.675679823E1,-1.385587454E0,-1.859962463E0,-1.604212523E0
1.677679823E1,-1.385587454E0,-1.859962463E0,-1.604212523E0
1.679679823E1,-1.385587454E0,-1.859962463E0,-1.604212523E0
1.681679823E1,-1.385587454E0,-1.859962463E0,-1.604212523E0
1.683679823E1,-1.385587454E0,-1.859962463E0,-1.604212523E0
1.685679823E1,-1.385587454E0,-1.859962463E0,-1.604212523E0
1.687679823E1,1.490912437E0,-1.161875010E0,-3.485625029E0
1.689679823E1,1.490912437E0,-1.161875010E0,-3.485625029E0
1.691679823E1,1.490912437E0,-1.161875010E0,-3.485625029E0
1.693679823E1,1.490912437E0,-1.161875010E0,-3.485625029E0
1.695679823E1,1.490912437E0,-1.161875010E0,-3.485625029E0
1.697679823E1,7.870224953E0,-2.028619957E1,-3.459912539E0
1.699679823E1,7.870224953E0,-2.028619957E1,-3.459912539E0
1.701679823E1,5.912912369E0,-1.330037498E1,-1.749687433E0
1.703679823E1,5.912912369E0,-1.330037498E1,-1.749687433E0
1.705679823E1,5.912912369E0,-1.330037498E1,-1.749687433E0
1.707679823E1,5.912912369E0,-1.330037498E1,-1.749687433E0
1.709679823E1,5.912912369E0,-1.330037498E1,-1.749687433E0
1.711679823E1,-1.773750037E-1,4.547125101E-1,9.858750105E-1
1.713679823E1,-1.773750037E-1,4.547125101E-1,9.858750105E-1
1.715679823E1,-1.539999962E0,5.119400024E0,1.186212540E0
1.717679823E1,-1.539999962E0,5.119400024E0,1.186212540E0
1.719679823E1,-1.539999962E0,5.119400024E0,1.186212540E0
1.721679823E1,-1.566537499E0,7.159625053E0,1.140837550E0
1.723679823E1,-1.566537499E0,7.159625053E0,1.140837550E0
1.725679823E1,-2.555162430E0,7.399974823E0,2.136337519E0
1.727679823E1,-2.555162430E0,7.399974823E0,2.136337519E0
1.729679823E1,-2.735562563E0,4.983550072E0,3.571424961E0
1.731679823E1,-2.735562563E0,4.983550072E0,3.571424961E0
1.733679823E1,-2.735562563E0,4.983550072E0,3.571424961E0
1.735679823E1,-1.728374958E0,1.983162522E0,3.578024864E0
1.737679823E1,-1.728374958E0,1.983162522E0,3.578024864E0
1.739679823E1,-1.728374958E0,1.983162522E0,3.578024864E0
1.741679823E1,-1.728374958E0,1.983162522E0,3.578024864E0
1.743679823E1,-1.728374958E0,1.983162522E0,3.578024864E0
1.745679823E1,7.642250061E-1,8.185374737E-1,-1.421200037E0
1.747679823E1,7.642250061E-1,8.185374737E-1,-1.421200037E0
1.749679823E1,5.274087429E0,-1.871787548E0,-1.560487509E0
1.751679823E1,5.274087429E0,-1.871787548E0,-1.560487509E0
1.753679823E1,5.274087429E0,-1.871787548E0,-1.560487509E0
1.755679823E1,5.274087429E0,-1.871787548E0,-1.560487509E0
1.757679823E1,5.274087429E0,-1.871787548E0,-1.560487509E0
1.759679823E1,1.279850006E0,-3.238812447E0,-2.408037424E0
1.761679823E1,1.279850006E0,-3.238812447E0,-2.408037424E0
1.763679823E1,-3.753750026E-1,-3.149574995E0,-1.594449997E0
1.765679823E1,-3.753750026E-1,-3.149574995E0,-1.594449997E0
1.767679823E1,-3.753750026E-1,-3.149574995E0,-1.594449997E0
1.769679823E1,1.915650010E0,-4.803150177E0,-1.794375032E-1
1.771679823E1,1.915650010E0,-4.803150177E0,-1.794375032E-1
1.773679823E1,1.915650010E0,-4.803150177E0,-1.794375032E-1
1.775679823E1,1.915650010E0,-4.803150177E0,-1.794375032E-1
1.777679823E1,1.915650010E0,-4.803150177E0,-1.794375032E-1
1.779679823E1,9.648374915E-1,-3.004649878E0,2.429624945E-1
1.781679823E1,9.648374915E-1,-3.004649878E0,2.429624945E-1
1.783679823E1,1.275312543E0,-2.233137369E0,7.881500125E-1
1.785679823E1,1.275312543E0,-2.233137369E0,7.881500125E-1
1.787679823E1,1.275312543E0,-2.233137369E0,7.881500125E-1
1.789679823E1,1.275312543E0,-2.233137369E0,7.881500125E-1
1.791679823E1,1.275312543E0,-2.233137369E0,7.881500125E-1
1.793679823E1,1.275312543E0,-2.233137369E0,7.881500125E-1
1.795679823E1,1.275312543E0,-2.233137369E0,7.881500125E-1
1.797679823E1,1.247674942E0,-9.053000212E-1,3.451250121E-2
1.799679823E1,1.247674942E0,-9.053000212E-1,3.451250121E-2
1.801679823E1,1.247674942E0,-9.053000212E-1,3.451250121E-2
1.803679823E1,-2.415874958E0,1.439625025E0,-2.996124923E-1
1.805679823E1,-2.415874958E0,1.439625025E0,-2.996124923E-1
1.807679823E1,-1.754912496E0,2.016575098E0,4.247374833E-1
1.809679823E1,-1.754912496E0,2.016575098E0,4.247374833E-1
1.811679823E1,-1.754912496E0,2.016575098E0,4.247374833E-1
1.813679823E1,-1.754912496E0,2.016575098E0,4.247374833E-1
1.815679823E1,-1.754912496E0,2.016575098E0,4.247374833E-1
1.817679823E1,2.151875049E-1,1.479362488E0,1.621812463E0
1.819679823E1,2.151875049E-1,1.479362488E0,1.621812463E0
1.821679823E1,1.001412511E0,8.265125155E-1,1.255787492E0
1.823679823E1,1.001412511E0,8.265125155E-1,1.255787492E0
1.825679823E1,1.001412511E0,8.265125155E-1,1.255787492E0
1.827679823E1,8.553875089E-1,2.059749961E-1,-3.867875040E-1
1.829679823E1,8.553875089E-1,2.059749961E-1,-3.867875040E-1
1.831679823E1,1.626075029E0,-1.022724986E0,-1.328387499E0
1.833679823E1,1.626075029E0,-1.022724986E0,-1.328387499E0
1.835679823E1,1.626075029E0,-1.022724986E0,-1.328387499E0
1.837679823E1,1.626075029E0,-1.022724986E0,-1.328387499E0
1.839679823E1,1.626075029E0,-1.022724986E0,-1.328387499E0
1.841679823E1,1.715999961E0,-2.376137495E0,-6.895624995E-1
1.843679823E1,1.715999961E0,-2.376137495E0,-6.895624995E-1
1.845679823E1,1.715999961E0,-2.376137495E0,-6.895624995E-1
1.847679823E1,1.715999961E0,-2.376137495E0,-6.895624995E-1
1.849679823E1,1.715999961E0,-2.376137495E0,-6.895624995E-1
1.851679823E1,2.889287472E0,-6.278800011E0,-1.035512447E0
1.853679823E1,2.889287472E0,-6.278800011E0,-1.035512447E0
1.855679823E1,7.037249804E-1,-2.647562504E0,-2.873750031E-2
1.857679823E1,7.037249804E-1,-2.647562504E0,-2.873750031E-2
1.859679823E1,7.037249804E-1,-2.647562504E0,-2.873750031E-2
1.861679823E1,7.037249804E-1,-2.647562504E0,-2.873750031E-2
1.863679823E1,7.037249804E-1,-2.647562504E0,-2.873750031E-2
1.865679823E1,-5.068250179E0,1.013196278E1,1.869724989E0
1.867679823E1,-5.068250179E0,1.013196278E1,1.869724989E0
1.869679823E1,-5.068250179E0,1.013196278E1,1.869724989E0
1.871679823E1,-5.068250179E0,1.013196278E1,1.869724989E0
1.873679823E1,-5.068250179E0,1.013196278E1,1.869724989E0
1.875679823E1,-7.661499977E-1,3.348812580E0,3.162912369E0
1.877679823E1,-7.661499977E-1,3.348812580E0,3.162912369E0
1.879679823E1,-7.661499977E-1,3.348812580E0,3.162912369E0
1.881679823E1,-7.661499977E-1,3.348812580E0,3.162912369E0
1.883679823E1,-7.661499977E-1,3.348812580E0,3.162912369E0
1.885679823E1,6.291999817E-1,1.519374967E0,-6.934124827E-1
1.887679823E1,6.291999817E-1,1.519374967E0,-6.934124827E-1
1.889679823E1,9.838125110E-1,1.349149942E0,-2.036512375E0
1.891679823E1,9.838125110E-1,1.349149942E0,-2.036512375E0
1.893679823E1,9.838125110E-1,1.349149942E0,-2.036512375E0
1.895679823E1,9.838125110E-1,1.349149942E0,-2.036512375E0
1.897679823E1,9.838125110E-1,1.349149942E0,-2.036512375E0
1.899679823E1,-2.380125046E0,6.451637268E0,-2.946487427E0
1.901679823E1,-2.380125046E0,6.451637268E0,-2.946487427E0
1.903679823E1,-2.345612526E0,3.976224899E0,-8.034124970E-1
1.905679823E1,-2.345612526E0,3.976224899E0,-8.034124970E-1
1.907679823E1,-2.345612526E0,3.976224899E0,-8.034124970E-1
1.909679823E1,-1.823662519E0,1.683137536E0,8.577250242E-1
1.911679823E1,-1.823662519E0,1.683137536E0,8.577250242E-1
1.913679823E1,-1.823662519E0,1.683137536E0,8.577250242E-1
1.915679823E1,-1.823662519E0,1.683137536E0,8.577250242E-1
1.917679823E1,-1.823662519E0,1.683137536E0,8.577250242E-1
1.919679823E1,-1.823662519E0,1.683137536E0,8.577250242E-1
1.921679823E1,-1.823662519E0,1.683137536E0,8.577250242E-1
1.923679823E1,-9.216625094E-1,8.051999807E-1,1.722599983E0
1.925679823E1,-9.216625094E-1,8.051999807E-1,1.722599983E0
1.927679823E1,-9.216625094E-1,8.051999807E-1,1.722599983E0
1.929679823E1,-9.216625094E-1,8.051999807E-1,1.722599983E0
1.931679823E1,-9.216625094E-1,8.051999807E-1,1.722599983E0
1.933679823E1,1.132862449E0,1.207800031E0,1.115124941E0
1.935679823E1,1.132862449E0,1.207800031E0,1.115124941E0
1.937679823E1,3.048650026E0,1.832049966E0,9.638749808E-2
1.939679823E1,3.048650026E0,1.832049966E0,9.638749808E-2
1.941679823E1,3.048650026E0,1.832049966E0,9.638749808E-2
1.943679823E1,3.048650026E0,1.832049966E0,9.638749808E-2
1.945679823E1,3.048650026E0,1.832049966E0,9.638749808E-2
1.947679823E1,1.303499937E0,3.630962372E0,-9.395374656E-1
1.949679823E1,1.303499937E0,3.630962372E0,-9.395374656E-1
1.951679823E1,1.303499937E0,3.630962372E0,-9.395374656E-1
1.953679823E1,1.303499937E0,3.630962372E0,-9.395374656E-1
1.955679823E1,1.303499937E0,3.630962372E0,-9.395374656E-1
1.957679823E1,6.150375009E-1,3.554237366E0,-1.369912505E0
1.959679823E1,6.150375009E-1,3.554237366E0,-1.369912505E0
1.961679823E1,-1.850612521E0,1.014612436E0,-5.377625227E-1
1.963679823E1,-1.850612521E0,1.014612436E0,-5.377625227E-1
1.965679823E1,-1.850612521E0,1.014612436E0,-5.377625227E-1
1.967679823E1,-1.903962493E0,-3.217499852E-1,1.669800043E0
1.969679823E1,-1.903962493E0,-3.217499852E-1,1.669800043E0
1.971679823E1,-7.008374929E-1,-4.006749988E-1,2.155725002E0
1.973679823E1,-7.008374929E-1,-4.006749988E-1,2.155725002E0
1.975679823E1,-7.008374929E-1,-4.006749988E-1,2.155725002E0
1.977679823E1,-7.008374929E-1,-4.006749988E-1,2.155725002E0
1.979679823E1,-7.008374929E-1,-4.006749988E-1,2.155725002E0
1.981679823E1,1.211374998E-1,-8.817874789E-1,2.104850054E0
1.983679823E1,1.211374998E-1,-8.817874789E-1,2.104850054E0
1.985679823E1,6.847500056E-2,-8.362749815E-1,1.501637459E0
1.987679823E1,6.847500056E-2,-8.362749815E-1,1.501637459E0
1.989679823E1,6.847500056E-2,-8.362749815E-1,1.501637459E0
1.991679823E1,6.847500056E-2,-8.362749815E-1,1.501637459E0
1.993679823E1,6.847500056E-2,-8.362749815E-1,1.501637459E0
1.995679823E1,2.754124999E-1,8.931999803E-1,-1.689737439E0
1.997679823E1,2.754124999E-1,8.931999803E-1,-1.689737439E0
1.999679823E1,2.754124999E-1,8.931999803E-1,-1.689737439E0
2.001679823E1,2.754124999E-1,8.931999803E-1,-1.689737439E0
2.003679823E1,2.754124999E-1,8.931999803E-1,-1.689737439E0
2.005679823E1,-1.361249983E-1,8.116624951E-1,-2.800462484E0
2.007679823E1,-1.361249983E-1,8.116624951E-1,-2.800462484E0
2.009679823E1,-1.328250021E-1,5.585250258E-1,-2.137162447E0
2.011679823E1,-1.328250021E-1,5.585250258E-1,-2.137162447E0
2.013679823E1,-1.328250021E-1,5.585250258E-1,-2.137162447E0
2.015679823E1,-6.069250107E-1,-2.868250012E-1,-2.176624984E-1
2.017679823E1,-6.069250107E-1,-2.868250012E-1,-2.176624984E-1
2.019679823E1,-6.505125165E-1,-6.015625000E-1,1.106050014E0
2.021679823E1,-6.505125165E-1,-6.015625000E-1,1.106050014E0
2.023679823E1,-6.505125165E-1,-6.015625000E-1,1.106050014E0
2.025679823E1,-6.505125165E-1,-6.015625000E-1,1.106050014E0
2.027679823E1,-6.505125165E-1,-6.015625000E-1,1.106050014E0
2.029679823E1,-7.947499752E-1,1.815000027E-1,5.663625002E-1
2.031679823E1,-7.947499752E-1,1.815000027E-1,5.663625002E-1
2.033679823E1,-7.947499752E-1,1.815000027E-1,5.663625002E-1
2.035679823E1,-7.947499752E-1,1.815000027E-1,5.663625002E-1
2.037679823E1,-7.947499752E-1,1.815000027E-1,5.663625002E-1
2.039679823E1,7.739874721E-1,1.365375042E0,4.985750020E-1
2.041679823E1,7.739874721E-1,1.365375042E0,4.985750020E-1
2.043679823E1,3.178587437E0,7.134049892E0,-2.055625021E-1
2.045679823E1,3.178587437E0,7.134049892E0,-2.055625021E-1
2.047679823E1,3.178587437E0,7.134049892E0,-2.055625021E-1
2.049679823E1,1.195837498E0,3.769700050E0,-3.913249969E-1
2.051679823E1,1.195837498E0,3.769700050E0,-3.913249969E-1
2.053679823E1,-3.528249860E-1,1.264587522E0,-1.011999965E0
2.055679823E1,-3.528249860E-1,1.264587522E0,-1.011999965E0
2.057679823E1,-3.528249860E-1,1.264587522E0,-1.011999965E0
2.059679823E1,-3.528249860E-1,1.264587522E0,-1.011999965E0
2.061679823E1,-3.528249860E-1,1.264587522E0,-1.011999965E0
2.063679823E1,1.696612477E0,4.079625130E0,-1.433987498E0
2.065679823E1,1.696612477E0,4.079625130E0,-1.433987498E0
2.067679823E1,1.696612477E0,4.079625130E0,-1.433987498E0
2.069679823E1,1.696612477E0,4.079625130E0,-1.433987498E0
2.071679823E1,1.696612477E0,4.079625130E0,-1.433987498E0
2.073679823E1,7.479999959E-2,1.396175027E0,-8.034124970E-1
2.075679823E1,7.479999959E-2,1.396175027E0,-8.034124970E-1
2.077679823E1,1.605450034E0,2.610300064E0,7.829250097E-1
2.079679823E1,1.605450034E0,2.610300064E0,7.829250097E-1
2.081679823E1,1.605450034E0,2.610300064E0,7.829250097E-1
2.083679823E1,1.605450034E0,2.610300064E0,7.829250097E-1
2.085679823E1,1.605450034E0,2.610300064E0,7.829250097E-1
2.087679823E1,-2.571799994E0,-1.706375003E0,-1.017500013E-1
2.089679823E1,-2.571799994E0,-1.706375003E0,-1.017500013E-1
2.091679823E1,-2.571799994E0,-1.706375003E0,-1.017500013E-1
2.093679823E1,-2.571799994E0,-1.706375003E0,-1.017500013E-1
2.095679823E1,-2.571799994E0,-1.706375003E0,-1.017500013E-1
2.097679823E1,1.507000029E-1,-3.454000056E-1,-2.289374918E-1
2.099679823E1,1.507000029E-1,-3.454000056E-1,-2.289374918E-1
2.101679823E1,2.146375030E-1,-6.155874729E-1,-1.887737513E0
2.103679823E1,2.146375030E-1,-6.155874729E-1,-1.887737513E0
2.105679823E1,2.146375030E-1,-6.155874729E-1,-1.887737513E0
2.107679823E1,2.146375030E-1,-6.155874729E-1,-1.887737513E0
2.109679823E1,2.146375030E-1,-6.155874729E-1,-1.887737513E0
2.111679823E1,-2.551999986E-1,-7.999749780E-1,-8.859124780E-1
2.113679823E1,-2.551999986E-1,-7.999749780E-1,-8.859124780E-1
2.115679823E1,-2.341624945E-1,-9.491624832E-1,-1.073874980E-1
2.115679823E1,-2.341624945E-1,-9.491624832E-1,-1.073874980E-1
2.119679823E1,-2.341624945E-1,-9.491624832E-1,-1.073874980E-1
2.121679823E1,-7.041375041E-1,-2.144862413E0,1.594037533E0
2.123679823E1,-7.041375041E-1,-2.144862413E0,1.594037533E0
2.125679823E1,-1.049262524E0,-5.342424870E0,2.448324919E0
2.127679823E1,-1.049262524E0,-5.342424870E0,2.448324919E0
2.129679823E1,-1.049262524E0,-5.342424870E0,2.448324919E0
2.131679823E1,-1.049262524E0,-5.342424870E0,2.448324919E0
2.133679823E1,-1.049262524E0,-5.342424870E0,2.448324919E0
2.135679823E1,-1.049262524E0,-5.342424870E0,2.448324919E0
2.137679823E1,-1.049262524E0,-5.342424870E0,2.448324919E0
2.139679823E1,-1.049262524E0,-5.342424870E0,2.448324919E0
2.141679823E1,-1.049262524E0,-5.342424870E0,2.448324919E0
2.143679823E1,-1.049262524E0,-5.342424870E0,2.448324919E0
2.145679823E1,3.896612406E0,8.357112885E0,1.010487437E0
2.147679823E1,3.896612406E0,8.357112885E0,1.010487437E0
2.149679823E1,6.738187313E0,1.618526268E1,1.962125003E-1
2.151679823E1,6.738187313E0,1.618526268E1,1.962125003E-1
2.153679823E1,6.738187313E0,1.618526268E1,1.962125003E-1
2.155679823E1,2.945524931E0,8.052962303E0,-1.167512536E0
2.157679823E1,2.945524931E0,8.052962303E0,-1.167512536E0
2.159679823E1,9.857375026E-1,4.068624973E0,-1.015025020E0
2.161679823E1,9.857375026E-1,4.068624973E0,-1.015025020E0
2.163679823E1,9.857375026E-1,4.068624973E0,-1.015025020E0
2.165679823E1,9.857375026E-1,4.068624973E0,-1.015025020E0
2.167679823E1,9.857375026E-1,4.068624973E0,-1.015025020E0
2.169679823E1,6.514887333E0,2.144725084E0,-4.304162502E0
2.171679823E1,6.514887333E0,2.144725084E0,-4.304162502E0
2.173679823E1,6.514887333E0,2.144725084E0,-4.304162502E0
2.175679823E1,6.514887333E0,2.144725084E0,-4.304162502E0
2.177679823E1,6.514887333E0,2.144725084E0,-4.304162502E0
2.179679823E1,-7.962625027E-1,-1.699499935E-1,1.046650052E0
2.181679823E1,-7.962625027E-1,-1.699499935E-1,1.046650052E0
2.183679823E1,-3.588750064E-1,4.474250078E-1,1.587849975E0
2.185679823E1,-3.588750064E-1,4.474250078E-1,1.587849975E0
2.187679823E1,-3.588750064E-1,4.474250078E-1,1.587849975E0
2.189679823E1,-3.588750064E-1,4.474250078E-1,1.587849975E0
2.191679823E1,-3.588750064E-1,4.474250078E-1,1.587849975E0
2.193679823E1,-3.588750064E-1,4.474250078E-1,1.587849975E0
2.195679823E1,-3.588750064E-1,4.474250078E-1,1.587849975E0
2.197679823E1,-4.798200130E0,-1.506120014E1,6.429499984E-1
2.199679823E1,-4.798200130E0,-1.506120014E1,6.429499984E-1
2.201679823E1,-4.798200130E0,-1.506120014E1,6.429499984E-1
2.203679823E1,-7.672637463E0,-1.584494972E1,-2.976875007E-1
2.205679823E1,-7.672637463E0,-1.584494972E1,-2.976875007E-1
2.207679823E1,-7.672637463E0,-1.584494972E1,-2.976875007E-1
2.209679823E1,-7.672637463E0,-1.584494972E1,-2.976875007E-1
2.211679823E1,-7.672637463E0,-1.584494972E1,-2.976875007E-1
2.213679823E1,-7.672637463E0,-1.584494972E1,-2.976875007E-1
2.215679823E1,-7.672637463E0,-1.584494972E1,-2.976875007E-1
2.217679823E1,-7.348275185E0,-1.710115051E1,-6.423587322E0
2.219679823E1,-7.348275185E0,-1.710115051E1,-6.423587322E0
2.221679823E1,-5.461500168E0,-1.806598663E1,-4.167624950E0
2.223679823E1,-5.461500168E0,-1.806598663E1,-4.167624950E0
2.225679823E1,-5.461500168E0,-1.806598663E1,-4.167624950E0
2.227679823E1,-4.112899780E0,-1.514865017E1,-4.963887691E0
2.229679823E1,-4.112899780E0,-1.514865017E1,-4.963887691E0
2.231679823E1,-2.219799995E0,-1.009676266E1,-5.021774769E0
2.233679823E1,-2.219799995E0,-1.009676266E1,-5.021774769E0
2.235679823E1,-2.219799995E0,-1.009676266E1,-5.021774769E0
2.237679823E1,9.950875044E-1,-4.270337582E0,-9.039662361E0
2.239679823E1,9.950875044E-1,-4.270337582E0,-9.039662361E0
2.241679823E1,9.950875044E-1,-4.270337582E0,-9.039662361E0
2.243679823E1,9.950875044E-1,-4.270337582E0,-9.039662361E0
2.245679823E1,9.950875044E-1,-4.270337582E0,-9.039662361E0
2.247679823E1,9.950875044E-1,-4.270337582E0,-9.039662361E0
2.249679823E1,9.950875044E-1,-4.270337582E0,-9.039662361E0
2.251679823E1,7.875999808E-1,-7.342500091E-1,3.097325087E0
2.253679823E1,7.875999808E-1,-7.342500091E-1,3.097325087E0
2.255679823E1,4.464625120E-1,-5.403750017E-2,3.029537439E0
2.257679823E1,4.464625120E-1,-5.403750017E-2,3.029537439E0
2.259679823E1,4.464625120E-1,-5.403750017E-2,3.029537439E0
2.261679823E1,-1.067000031E-1,-1.430000067E-1,2.911149979E0
2.263679823E1,-1.067000031E-1,-1.430000067E-1,2.911149979E0
2.265679823E1,-1.920187473E0,-6.346449852E0,2.399237394E0
2.267679823E1,-1.920187473E0,-6.346449852E0,2.399237394E0
2.269679823E1,-8.504099846E0,-1.684650040E1,-1.941499949E0
2.271679823E1,-8.504099846E0,-1.684650040E1,-1.941499949E0
2.273679823E1,-8.504099846E0,-1.684650040E1,-1.941499949E0
2.275679823E1,-9.494649887E0,-1.171871281E1,5.257999897E-1
2.277679823E1,-9.494649887E0,-1.171871281E1,5.257999897E-1
2.279679823E1,-9.494649887E0,-1.171871281E1,5.257999897E-1
2.281679823E1,-9.494649887E0,-1.171871281E1,5.257999897E-1
2.283679823E1,-9.494649887E0,-1.171871281E1,5.257999897E-1
2.285679823E1,4.581637383E0,4.429287434E0,-1.400849938E0
2.287679823E1,4.581637383E0,4.429287434E0,-1.400849938E0
2.289679823E1,8.664837837E0,1.846418762E1,8.942999840E-1
2.291679823E1,8.664837837E0,1.846418762E1,8.942999840E-1
2.293679823E1,8.664837837E0,1.846418762E1,8.942999840E-1
2.295679823E1,8.664837837E0,1.846418762E1,8.942999840E-1
2.297679823E1,8.664837837E0,1.846418762E1,8.942999840E-1
2.299679823E1,1.321099997E0,3.241425037E0,-1.400849938E0
2.301679823E1,1.321099997E0,3.241425037E0,-1.400849938E0
2.303679823E1,2.065112591E0,1.887874961E0,-4.238712311E0
2.305679823E1,2.065112591E0,1.887874961E0,-4.238712311E0
2.307679823E1,2.065112591E0,1.887874961E0,-4.238712311E0
2.309679823E1,7.793087482E0,1.081300020E0,-7.734237671E0
2.311679823E1,7.793087482E0,1.081300020E0,-7.734237671E0
2.313679823E1,7.793087482E0,1.081300020E0,-7.734237671E0
2.315679823E1,7.793087482E0,1.081300020E0,-7.734237671E0
2.317679823E1,7.793087482E0,1.081300020E0,-7.734237671E0
2.319679823E1,7.793087482E0,1.081300020E0,-7.734237671E0
2.321679823E1,7.793087482E0,1.081300020E0,-7.734237671E0
2.323679823E1,1.227874979E-1,9.719874859E-1,3.338224888E0
2.325679823E1,1.227874979E-1,9.719874859E-1,3.338224888E0
2.327679823E1,1.227874979E-1,9.719874859E-1,3.338224888E0
2.329679823E1,1.227874979E-1,9.719874859E-1,3.338224888E0
2.331679823E1,1.227874979E-1,9.719874859E-1,3.338224888E0
2.333679823E1,-6.102250218E-1,-5.629249811E-1,2.909637451E0
2.335679823E1,-6.102250218E-1,-5.629249811E-1,2.909637451E0
2.337679823E1,-2.207974911E0,-7.213662624E0,2.539074898E0
2.339679823E1,-2.207974911E0,-7.213662624E0,2.539074898E0
2.341679823E1,-2.207974911E0,-7.213662624E0,2.539074898E0
2.343679823E1,-8.212462425E0,-1.419288731E1,8.380625248E-1
2.345679823E1,-8.212462425E0,-1.419288731E1,8.380625248E-1
2.347679823E1,-8.430812836E0,-1.133192539E1,2.168649912E0
2.349679823E1,-8.430812836E0,-1.133192539E1,2.168649912E0
2.351679823E1,-8.430812836E0,-1.133192539E1,2.168649912E0
2.353679823E1,-8.430812836E0,-1.133192539E1,2.168649912E0
2.355679823E1,-8.430812836E0,-1.133192539E1,2.168649912E0
2.357679823E1,6.748499870E-1,-3.077112436E0,-4.615462303E0
2.359679823E1,6.748499870E-1,-3.077112436E0,-4.615462303E0
2.361679823E1,1.002320004E1,2.201457405E1,6.400625110E-1
2.363679823E1,1.002320004E1,2.201457405E1,6.400625110E-1
2.365679823E1,1.002320004E1,2.201457405E1,6.400625110E-1
2.367679823E1,3.076012373E0,1.012481213E1,-1.618649960E0
2.369679823E1,3.076012373E0,1.012481213E1,-1.618649960E0
2.371679823E1,4.860624969E-1,4.972962379E0,-2.196150064E0
2.373679823E1,4.860624969E-1,4.972962379E0,-2.196150064E0
2.375679823E1,-4.034250081E-1,3.244587421E0,-3.837899923E0
2.377679823E1,-4.034250081E-1,3.244587421E0,-3.837899923E0
2.379679823E1,-4.034250081E-1,3.244587421E0,-3.837899923E0
2.381679823E1,-5.858874917E-1,2.295287371E0,-5.826287270E0
2.383679823E1,-5.858874917E-1,2.295287371E0,-5.826287270E0
2.385679823E1,-5.858874917E-1,2.295287371E0,-5.826287270E0
2.387679823E1,-5.858874917E-1,2.295287371E0,-5.826287270E0
2.389679823E1,-5.858874917E-1,2.295287371E0,-5.826287270E0
2.391679823E1,-5.858874917E-1,2.295287371E0,-5.826287270E0
2.393679823E1,-5.858874917E-1,2.295287371E0,-5.826287270E0
2.395679823E1,-5.858874917E-1,2.295287371E0,-5.826287270E0
2.395679823E1,5.097125173E-1,1.117599964E0,2.341350079E0
2.399679823E1,5.097125173E-1,1.117599964E0,2.341350079E0
2.401679823E1,5.097125173E-1,1.117599964E0,2.341350079E0
2.403679823E1,5.097125173E-1,1.117599964E0,2.341350079E0
2.405679823E1,7.191249728E-2,9.288125038E-1,1.740337491E0
2.407679823E1,7.191249728E-2,9.288125038E-1,1.740337491E0
2.409679823E1,-1.847725034E0,-2.667087555E0,1.634325027E0
2.411679823E1,-1.847725034E0,-2.667087555E0,1.634325027E0
2.413679823E1,-1.847725034E0,-2.667087555E0,1.634325027E0
2.415679823E1,-3.888225079E0,-9.101124763E0,1.333750010E0
2.417679823E1,-3.888225079E0,-9.101124763E0,1.333750010E0
2.419679823E1,-3.888225079E0,-9.101124763E0,1.333750010E0
2.421679823E1,-3.888225079E0,-9.101124763E0,1.333750010E0
2.423679823E1,-3.888225079E0,-9.101124763E0,1.333750010E0
2.425679823E1,-4.407149792E0,-8.420637131E0,1.619749963E-1
2.427679823E1,-4.407149792E0,-8.420637131E0,1.619749963E-1
2.429679823E1,-1.341312528E0,-6.030475140E0,-1.423537493E0
2.431679823E1,-1.341312528E0,-6.030475140E0,-1.423537493E0
2.433679823E1,-1.341312528E0,-6.030475140E0,-1.423537493E0
2.435679823E1,-1.341312528E0,-6.030475140E0,-1.423537493E0
2.437679823E1,-1.341312528E0,-6.030475140E0,-1.423537493E0
2.439679823E1,-4.699887276E0,-2.299440002E1,-1.744875014E-1
2.441679823E1,-4.699887276E0,-2.299440002E1,-1.744875014E-1
2.443679823E1,-2.207287550E0,-1.542694950E1,-3.280749917E-1
2.445679823E1,-2.207287550E0,-1.542694950E1,-3.280749917E-1
2.447679823E1,-2.207287550E0,-1.542694950E1,-3.280749917E-1
2.449679823E1,-1.376512527E0,-1.082853699E1,-9.229000211E-1
2.451679823E1,-1.376512527E0,-1.082853699E1,-9.229000211E-1
2.453679823E1,7.609249949E-1,-8.197612762E0,-3.796925068E0
2.455679823E1,7.609249949E-1,-8.197612762E0,-3.796925068E0
2.457679823E1,7.609249949E-1,-8.197612762E0,-3.796925068E0
2.459679823E1,7.609249949E-1,-8.197612762E0,-3.796925068E0
2.461679823E1,7.609249949E-1,-8.197612762E0,-3.796925068E0
2.463679823E1,-1.616724968E0,-6.310699940E0,1.379262447E0
2.465679823E1,-1.616724968E0,-6.310699940E0,1.379262447E0
2.467679823E1,-1.616724968E0,-6.310699940E0,1.379262447E0
2.469679823E1,-1.616724968E0,-6.310699940E0,1.379262447E0
2.471679823E1,-1.616724968E0,-6.310699940E0,1.379262447E0
2.473679823E1,1.217012525E0,-8.703749627E-2,2.027437449E0
2.475679823E1,1.217012525E0,-8.703749627E-2,2.027437449E0
2.477679823E1,1.217012525E0,-8.703749627E-2,2.027437449E0
2.479679823E1,1.217012525E0,-8.703749627E-2,2.027437449E0
2.481679823E1,1.217012525E0,-8.703749627E-2,2.027437449E0
2.483679823E1,1.217012525E0,-8.703749627E-2,2.027437449E0
2.485679823E1,1.217012525E0,-8.703749627E-2,2.027437449E0
2.487679823E1,8.046500087E-1,7.643625140E-1,-1.927612543E0
2.489679823E1,8.046500087E-1,7.643625140E-1,-1.927612543E0
2.491679823E1,8.046500087E-1,7.643625140E-1,-1.927612543E0
2.493679823E1,8.046500087E-1,7.643625140E-1,-1.927612543E0
2.495679823E1,8.046500087E-1,7.643625140E-1,-1.927612543E0
2.497679823E1,-1.302399993E0,-8.160625100E-1,-2.396624982E-1
2.499679823E1,-1.302399993E0,-8.160625100E-1,-2.396624982E-1
2.501679823E1,-4.857875109E-1,-6.017000079E-1,2.008599997E0
2.503679823E1,-4.857875109E-1,-6.017000079E-1,2.008599997E0
2.505679823E1,-4.857875109E-1,-6.017000079E-1,2.008599997E0
2.507679823E1,-4.857875109E-1,-6.017000079E-1,2.008599997E0
2.509679823E1,-4.857875109E-1,-6.017000079E-1,2.008599997E0
2.511679823E1,-1.962125003E-1,-4.194437504E0,1.233237505E0
2.513679823E1,-1.962125003E-1,-4.194437504E0,1.233237505E0
2.515679823E1,6.638500094E-1,1.347637534E0,1.912349939E0
2.517679823E1,6.638500094E-1,1.347637534E0,1.912349939E0
2.519679823E1,6.638500094E-1,1.347637534E0,1.912349939E0
2.521679823E1,2.127949953E0,1.016111279E1,4.526500106E-1
2.523679823E1,2.127949953E0,1.016111279E1,4.526500106E-1
2.525679823E1,2.242074966E0,6.961349964E0,-6.395124793E-1
2.527679823E1,2.242074966E0,6.961349964E0,-6.395124793E-1
2.529679823E1,2.242074966E0,6.961349964E0,-6.395124793E-1
2.531679823E1,1.880312443E0,3.693799973E0,-7.997000217E-1
2.533679823E1,1.880312443E0,3.693799973E0,-7.997000217E-1
2.535679823E1,1.812937498E0,1.736899972E0,-1.083087444E0
2.537679823E1,1.812937498E0,1.736899972E0,-1.083087444E0
2.539679823E1,1.812937498E0,1.736899972E0,-1.083087444E0
2.541679823E1,1.812937498E0,1.736899972E0,-1.083087444E0
2.543679823E1,1.812937498E0,1.736899972E0,-1.083087444E0
2.545679823E1,-1.927474976E0,-1.638999939E0,-9.513624907E-1
2.547679823E1,-1.927474976E0,-1.638999939E0,-9.513624907E-1
2.549679823E1,-1.888287544E0,-1.767562509E0,-5.893250108E-1
2.551679823E1,-1.888287544E0,-1.767562509E0,-5.893250108E-1
2.553679823E1,-1.888287544E0,-1.767562509E0,-5.893250108E-1
2.555679823E1,-2.139225006E0,-1.156649947E0,1.008837461E0
2.557679823E1,-2.139225006E0,-1.156649947E0,1.008837461E0
2.559679823E1,-1.576849937E0,7.525374889E-1,2.688262463E0
2.561679823E1,-1.576849937E0,7.525374889E-1,2.688262463E0
2.563679823E1,-2.096875012E-1,2.421237469E0,2.996124983E0
2.565679823E1,-2.096875012E-1,2.421237469E0,2.996124983E0
2.567679823E1,-2.096875012E-1,2.421237469E0,2.996124983E0
2.569679823E1,9.586499929E-1,2.703662395E0,2.119562387E0
2.571679823E1,9.586499929E-1,2.703662395E0,2.119562387E0
2.573679823E1,9.586499929E-1,2.703662395E0,2.119562387E0
2.575679823E1,9.586499929E-1,2.703662395E0,2.119562387E0
2.577679823E1,9.586499929E-1,2.703662395E0,2.119562387E0
2.579679823E1,6.298875213E-1,4.740999937E-1,-3.190000057E-1
2.581679823E1,6.298875213E-1,4.740999937E-1,-3.190000057E-1
2.583679823E1,6.298875213E-1,4.740999937E-1,-3.190000057E-1
2.585679823E1,6.298875213E-1,4.740999937E-1,-3.190000057E-1
2.587679823E1,6.298875213E-1,4.740999937E-1,-3.190000057E-1
2.589679823E1,6.298875213E-1,4.740999937E-1,-3.190000057E-1
2.591679823E1,6.298875213E-1,4.740999937E-1,-3.190000057E-1
2.593679823E1,6.298875213E-1,4.740999937E-1,-3.190000057E-1
2.595679823E1,6.298875213E-1,4.740999937E-1,-3.190000057E-1
2.597679823E1,2.543750107E-1,3.166624904E-1,-1.168887496E0
2.599679823E1,2.543750107E-1,3.166624904E-1,-1.168887496E0
2.601679823E1,2.543750107E-1,3.166624904E-1,-1.168887496E0
2.603679823E1,1.507000029E-1,1.400300026E0,-3.334375024E-1
2.605679823E1,1.507000029E-1,1.400300026E0,-3.334375024E-1
2.607679823E1,1.507000029E-1,1.400300026E0,-3.334375024E-1
2.609679823E1,1.507000029E-1,1.400300026E0,-3.334375024E-1
2.611679823E1,1.507000029E-1,1.400300026E0,-3.334375024E-1
2.613679823E1,-1.122412443E0,2.685100079E0,1.349699974E0
2.615679823E1,-1.122412443E0,2.685100079E0,1.349699974E0
2.617679823E1,-1.481425047E0,3.273187399E0,1.656462550E0
2.619679823E1,-1.481425047E0,3.273187399E0,1.656462550E0
2.621679823E1,-1.481425047E0,3.273187399E0,1.656462550E0
2.623679823E1,-1.481425047E0,3.273187399E0,1.656462550E0
2.625679823E1,-1.481425047E0,3.273187399E0,1.656462550E0
2.627679823E1,-1.256887436E0,2.855599880E0,7.306749821E-1
2.629679823E1,-1.256887436E0,2.855599880E0,7.306749821E-1
2.631679823E1,-1.958000064E-1,2.147337437E0,7.294374704E-1
2.633679823E1,-1.958000064E-1,2.147337437E0,7.294374704E-1
2.635679823E1,-1.958000064E-1,2.147337437E0,7.294374704E-1
2.637679823E1,3.935250044E-1,1.276137471E0,6.865375042E-1
2.639679823E1,3.935250044E-1,1.276137471E0,6.865375042E-1
2.641679823E1,1.735250056E-1,3.755125105E-1,3.185875118E-1
2.643679823E1,1.735250056E-1,3.755125105E-1,3.185875118E-1
2.645679823E1,1.735250056E-1,3.755125105E-1,3.185875118E-1
2.647679823E1,1.735250056E-1,3.755125105E-1,3.185875118E-1
2.649679823E1,1.735250056E-1,3.755125105E-1,3.185875118E-1
2.651679823E1,3.262875080E-1,-2.243175030E0,-5.913875103E-1
2.653679823E1,3.262875080E-1,-2.243175030E0,-5.913875103E-1
2.655679823E1,3.262875080E-1,-2.243175030E0,-5.913875103E-1
2.657679823E1,3.262875080E-1,-2.243175030E0,-5.913875103E-1
2.659679823E1,3.262875080E-1,-2.243175030E0,-5.913875103E-1
2.661679823E1,1.166000009E0,-4.356824875E0,-1.545912504E0
2.663679823E1,1.166000009E0,-4.356824875E0,-1.545912504E0
2.665679823E1,1.265962481E0,-3.477099895E0,-1.203537464E0
2.667679823E1,1.265962481E0,-3.477099895E0,-1.203537464E0
2.669679823E1,1.265962481E0,-3.477099895E0,-1.203537464E0
2.671679823E1,1.265962481E0,-3.477099895E0,-1.203537464E0
2.673679823E1,1.265962481E0,-3.477099895E0,-1.203537464E0
2.675679823E1,1.417487502E0,-2.065387487E0,-3.905000091E-1
2.677679823E1,1.417487502E0,-2.065387487E0,-3.905000091E-1
2.679679823E1,1.417487502E0,-2.065387487E0,-3.905000091E-1
2.681679823E1,1.417487502E0,-2.065387487E0,-3.905000091E-1
2.683679823E1,1.417487502E0,-2.065387487E0,-3.905000091E-1
2.685679823E1,-1.186074972E0,-2.338599920E0,1.242862463E0
2.687679823E1,-1.186074972E0,-2.338599920E0,1.242862463E0
2.689679823E1,-1.587987542E0,-1.595275044E0,2.754262447E0
2.691679823E1,-1.587987542E0,-1.595275044E0,2.754262447E0
2.693679823E1,-1.587987542E0,-1.595275044E0,2.754262447E0
2.695679823E1,-1.587987542E0,-1.595275044E0,2.754262447E0
2.697679823E1,-1.587987542E0,-1.595275044E0,2.754262447E0
2.699679823E1,1.567500085E-2,-8.335250020E-1,8.122124672E-1
2.701679823E1,1.567500085E-2,-8.335250020E-1,8.122124672E-1
2.703679823E1,1.567500085E-2,-8.335250020E-1,8.122124672E-1
2.705679823E1,1.567500085E-2,-8.335250020E-1,8.122124672E-1
2.707679823E1,1.567500085E-2,-8.335250020E-1,8.122124672E-1
2.709679823E1,-9.487500414E-3,-1.627037525E0,-1.095875025E0
2.711679823E1,-9.487500414E-3,-1.627037525E0,-1.095875025E0
2.713679823E1,-9.487500414E-3,-1.627037525E0,-1.095875025E0
2.715679823E1,-9.487500414E-3,-1.627037525E0,-1.095875025E0
2.717679823E1,-9.487500414E-3,-1.627037525E0,-1.095875025E0
2.719679823E1,3.712499980E-3,-1.128187537E0,-2.172637463E0
2.721679823E1,3.712499980E-3,-1.128187537E0,-2.172637463E0
2.723679823E1,-2.682625055E-1,-1.158712506E0,-1.284250021E0
2.725679823E1,-2.682625055E-1,-1.158712506E0,-1.284250021E0
2.727679823E1,-2.682625055E-1,-1.158712506E0,-1.284250021E0
2.729679823E1,-2.682625055E-1,-1.158712506E0,-1.284250021E0
2.731679823E1,-2.682625055E-1,-1.158712506E0,-1.284250021E0
2.733679823E1,1.274625063E-1,1.267199993E0,1.336774945E0
2.735679823E1,1.274625063E-1,1.267199993E0,1.336774945E0
2.737679823E1,4.262499977E-3,2.333649874E0,1.584962487E0
2.739679823E1,4.262499977E-3,2.333649874E0,1.584962487E0
2.741679823E1,4.262499977E-3,2.333649874E0,1.584962487E0
2.743679823E1,-4.042499959E-1,3.656399965E0,2.259675026E0
2.745679823E1,-4.042499959E-1,3.656399965E0,2.259675026E0
2.747679823E1,5.527499914E-1,4.626187325E0,1.947000027E0
2.749679823E1,5.527499914E-1,4.626187325E0,1.947000027E0
2.751679823E1,5.527499914E-1,4.626187325E0,1.947000027E0
2.753679823E1,5.527499914E-1,4.626187325E0,1.947000027E0
2.755679823E1,5.527499914E-1,4.626187325E0,1.947000027E0
2.757679823E1,1.302812457E0,-2.543750033E-2,-3.910500109E-1
2.759679823E1,1.302812457E0,-2.543750033E-2,-3.910500109E-1
2.761679823E1,1.784199953E0,-2.538250089E-1,-6.549124718E-1
2.763679823E1,1.784199953E0,-2.538250089E-1,-6.549124718E-1
2.765679823E1,1.784199953E0,-2.538250089E-1,-6.549124718E-1
2.767679823E1,1.807299972E0,-1.104262471E0,-1.510437489E0
2.769679823E1,1.807299972E0,-1.104262471E0,-1.510437489E0
2.771679823E1,5.757125020E-1,-1.666224957E0,-2.094675064E0
2.773679823E1,5.757125020E-1,-1.666224957E0,-2.094675064E0
2.775679823E1,5.757125020E-1,-1.666224957E0,-2.094675064E0
2.777679823E1,5.757125020E-1,-1.666224957E0,-2.094675064E0
2.779679823E1,5.757125020E-1,-1.666224957E0,-2.094675064E0
2.781679823E1,6.232874990E-1,-6.901124716E-1,-1.469050050E0
2.783679823E1,6.232874990E-1,-6.901124716E-1,-1.469050050E0
2.785679823E1,6.232874990E-1,-6.901124716E-1,-1.469050050E0
2.787679823E1,6.232874990E-1,-6.901124716E-1,-1.469050050E0
2.789679823E1,6.232874990E-1,-6.901124716E-1,-1.469050050E0
2.791679823E1,-2.407900095E0,-7.419499755E-1,3.080275059E0
2.793679823E1,-2.407900095E0,-7.419499755E-1,3.080275059E0
2.795679823E1,-2.407900095E0,-7.419499755E-1,3.080275059E0
2.797679823E1,-2.407900095E0,-7.419499755E-1,3.080275059E0
2.799679823E1,-2.407900095E0,-7.419499755E-1,3.080275059E0
2.801679823E1,9.164375067E-1,2.619512558E0,2.091512442E0
2.803679823E1,9.164375067E-1,2.619512558E0,2.091512442E0
2.805679823E1,6.825500131E-1,2.226262569E0,1.218662500E0
2.807679823E1,6.825500131E-1,2.226262569E0,1.218662500E0
2.809679823E1,6.825500131E-1,2.226262569E0,1.218662500E0
2.811679823E1,6.825500131E-1,2.226262569E0,1.218662500E0
2.813679823E1,6.825500131E-1,2.226262569E0,1.218662500E0
2.815679823E1,1.151975036E0,-9.492999911E-1,-3.800775051E0
2.817679823E1,1.151975036E0,-9.492999911E-1,-3.800775051E0
2.819679823E1,1.151975036E0,-9.492999911E-1,-3.800775051E0
2.821679823E1,1.151975036E0,-9.492999911E-1,-3.800775051E0
2.823679823E1,1.151975036E0,-9.492999911E-1,-3.800775051E0
2.825679823E1,-4.736874998E-1,-8.021749854E-1,-2.134687424E0
2.827679823E1,-4.736874998E-1,-8.021749854E-1,-2.134687424E0
2.829679823E1,-6.921749711E-1,4.310624897E-1,2.901249938E-2
2.831679823E1,-6.921749711E-1,4.310624897E-1,2.901249938E-2
2.833679823E1,-6.921749711E-1,4.310624897E-1,2.901249938E-2
2.835679823E1,-6.921749711E-1,4.310624897E-1,2.901249938E-2
2.837679823E1,-6.921749711E-1,4.310624897E-1,2.901249938E-2
2.839679823E1,-1.794649959E0,3.964400053E0,3.036550045E0
2.841679823E1,-1.794649959E0,3.964400053E0,3.036550045E0
2.843679823E1,-1.794649959E0,3.964400053E0,3.036550045E0
2.845679823E1,-1.794649959E0,3.964400053E0,3.036550045E0
2.847679823E1,-1.794649959E0,3.964400053E0,3.036550045E0
2.849679823E1,-9.398124814E-1,3.730925083E0,2.240700006E0
2.851679823E1,-9.398124814E-1,3.730925083E0,2.240700006E0
2.853679823E1,-9.398124814E-1,3.730925083E0,2.240700006E0
2.855679823E1,-9.398124814E-1,3.730925083E0,2.240700006E0
2.857679823E1,-9.398124814E-1,3.730925083E0,2.240700006E0
2.859679823E1,-9.398124814E-1,3.730925083E0,2.240700006E0
2.861679823E1,-9.398124814E-1,3.730925083E0,2.240700006E0
2.863679823E1,2.631062508E0,-1.329624951E-1,-1.421750039E-1
2.865679823E1,2.631062508E0,-1.329624951E-1,-1.421750039E-1
2.867679823E1,1.868350029E0,-5.548124909E-1,-9.952250123E-1
2.869679823E1,1.868350029E0,-5.548124909E-1,-9.952250123E-1
2.871679823E1,1.868350029E0,-5.548124909E-1,-9.952250123E-1
2.873679823E1,1.604624987E-1,-1.529000044E0,-2.065387487E0
2.875679823E1,1.604624987E-1,-1.529000044E0,-2.065387487E0
2.877679823E1,1.604624987E-1,-1.529000044E0,-2.065387487E0
2.879679823E1,1.604624987E-1,-1.529000044E0,-2.065387487E0
2.881679823E1,1.604624987E-1,-1.529000044E0,-2.065387487E0
2.883679823E1,1.604624987E-1,-1.529000044E0,-2.065387487E0
2.885679823E1,1.604624987E-1,-1.529000044E0,-2.065387487E0
2.887679823E1,1.604624987E-1,-1.529000044E0,-2.065387487E0
2.889679823E1,1.604624987E-1,-1.529000044E0,-2.065387487E0
2.891679823E1,1.604624987E-1,-1.529000044E0,-2.065387487E0
2.893679823E1,1.604624987E-1,-1.529000044E0,-2.065387487E0
2.895679823E1,1.604624987E-1,-1.529000044E0,-2.065387487E0
2.897679823E1,1.061224937E0,2.856425047E0,1.874400020E0
2.899679823E1,1.061224937E0,2.856425047E0,1.874400020E0
2.901679823E1,1.007462502E0,2.794825077E0,1.052287459E0
2.903679823E1,1.007462502E0,2.794825077E0,1.052287459E0
2.905679823E1,1.007462502E0,2.794825077E0,1.052287459E0
2.907679823E1,4.042499885E-2,2.001037598E0,-1.041562438E0
2.909679823E1,4.042499885E-2,2.001037598E0,-1.041562438E0
2.911679823E1,4.042499885E-2,2.001037598E0,-1.041562438E0
2.913679823E1,4.042499885E-2,2.001037598E0,-1.041562438E0
2.915679823E1,4.042499885E-2,2.001037598E0,-1.041562438E0
2.917679823E1,4.042499885E-2,2.001037598E0,-1.041562438E0
2.919679823E1,4.042499885E-2,2.001037598E0,-1.041562438E0
2.921679823E1,-2.458912373E0,2.407074928E0,-1.132587552E0
2.923679823E1,-2.458912373E0,2.407074928E0,-1.132587552E0
2.925679823E1,-2.458912373E0,2.407074928E0,-1.132587552E0
2.927679823E1,-2.458912373E0,2.407074928E0,-1.132587552E0
2.929679823E1,-2.458912373E0,2.407074928E0,-1.132587552E0
2.931679823E1,-3.440112591E0,4.338399887E0,3.227262497E0
2.933679823E1,-3.440112591E0,4.338399887E0,3.227262497E0
2.935679823E1,-2.403224945E0,2.634087563E0,3.800225019E0
2.937679823E1,-2.403224945E0,2.634087563E0,3.800225019E0
2.939679823E1,-2.505249977E-1,1.152937531E0,3.449049950E0
2.941679823E1,-2.505249977E-1,1.152937531E0,3.449049950E0
2.943679823E1,-2.505249977E-1,1.152937531E0,3.449049950E0
2.945679823E1,1.650962472E0,1.033862472E0,1.972712517E0
2.947679823E1,1.650962472E0,1.033862472E0,1.972712517E0
2.949679823E1,1.650962472E0,1.033862472E0,1.972712517E0
2.951679823E1,1.650962472E0,1.033862472E0,1.972712517E0
2.953679823E1,1.650962472E0,1.033862472E0,1.972712517E0
2.955679823E1,3.262599945E0,7.226999998E-1,-1.606000066E-1
2.957679823E1,3.262599945E0,7.226999998E-1,-1.606000066E-1
2.959679823E1,3.262599945E0,7.226999998E-1,-1.606000066E-1
2.961679823E1,3.262599945E0,7.226999998E-1,-1.606000066E-1
2.963679823E1,3.262599945E0,7.226999998E-1,-1.606000066E-1
2.965679823E1,3.262599945E0,7.226999998E-1,-1.606000066E-1
2.967679823E1,3.262599945E0,7.226999998E-1,-1.606000066E-1
2.969679823E1,-2.465374947E0,3.134037495E0,-3.208425045E0
2.971679823E1,-2.465374947E0,3.134037495E0,-3.208425045E0
2.973679823E1,-4.977637291E0,4.848662376E0,-1.130800009E0
2.975679823E1,-4.977637291E0,4.848662376E0,-1.130800009E0
2.977679823E1,-4.977637291E0,4.848662376E0,-1.130800009E0
2.979679823E1,-3.393912554E0,1.515937448E0,1.295799971E0
2.981679823E1,-3.393912554E0,1.515937448E0,1.295799971E0
2.983679823E1,-3.393912554E0,1.515937448E0,1.295799971E0
2.985679823E1,-3.393912554E0,1.515937448E0,1.295799971E0
2.987679823E1,-3.393912554E0,1.515937448E0,1.295799971E0
2.989679823E1,2.106912374E0,-3.056487560E0,1.419549942E0
2.991679823E1,2.106912374E0,-3.056487560E0,1.419549942E0
2.993679823E1,2.106912374E0,-3.056487560E0,1.419549942E0
2.995679823E1,2.106912374E0,-3.056487560E0,1.419549942E0
2.997679823E1,2.106912374E0,-3.056487560E0,1.419549942E0
2.999679823E1,2.106912374E0,-3.056487560E0,1.419549942E0
3.001679823E1,2.106912374E0,-3.056487560E0,1.419549942E0
3.003679823E1,1.017225027E0,8.901749849E-1,-2.135099888E0
3.005679823E1,1.017225027E0,8.901749849E-1,-2.135099888E0
3.007679823E1,-6.345624924E-1,4.569262505E0,-2.482150078E0
3.009679823E1,-6.345624924E-1,4.569262505E0,-2.482150078E0
3.011679823E1,-6.345624924E-1,4.569262505E0,-2.482150078E0
3.013679823E1,-2.283874989E0,4.962924957E0,-8.546999693E-1
3.015679823E1,-2.283874989E0,4.962924957E0,-8.546999693E-1
3.017679823E1,-2.470050097E0,2.541137457E0,9.065374732E-1
3.019679823E1,-2.470050097E0,2.541137457E0,9.065374732E-1
3.021679823E1,-2.470050097E0,2.541137457E0,9.065374732E-1
3.023679823E1,-2.470050097E0,2.541137457E0,9.065374732E-1
3.025679823E1,-2.470050097E0,2.541137457E0,9.065374732E-1
3.027679823E1,-1.685474992E0,-1.317937493E0,4.954675198E0
3.029679823E1,-1.685474992E0,-1.317937493E0,4.954675198E0
3.031679823E1,8.123499751E-1,-2.132487535E0,5.911399841E0
3.033679823E1,8.123499751E-1,-2.132487535E0,5.911399841E0
3.035679823E1,8.123499751E-1,-2.132487535E0,5.911399841E0
3.037679823E1,8.841249943E-1,-2.134274960E0,8.457624912E-1
3.039679823E1,8.841249943E-1,-2.134274960E0,8.457624912E-1
3.041679823E1,1.383800030E0,-1.346675038E0,-2.262974977E0
3.043679823E1,1.383800030E0,-1.346675038E0,-2.262974977E0
3.045679823E1,1.383800030E0,-1.346675038E0,-2.262974977E0
3.047679823E1,1.383800030E0,-1.346675038E0,-2.262974977E0
3.049679823E1,1.383800030E0,-1.346675038E0,-2.262974977E0
3.051679823E1,1.294975042E0,6.594087601E0,-3.711124897E0
3.053679823E1,1.294975042E0,6.594087601E0,-3.711124897E0
3.055679823E1,1.294975042E0,6.594087601E0,-3.711124897E0
3.057679823E1,1.294975042E0,6.594087601E0,-3.711124897E0
3.059679823E1,1.294975042E0,6.594087601E0,-3.711124897E0
3.061679823E1,-2.654574871E0,5.502474785E0,-2.798399925E0
3.063679823E1,-2.654574871E0,5.502474785E0,-2.798399925E0
3.065679823E1,-6.058387280E0,3.598237514E0,-6.949387550E0
3.067679823E1,-6.058387280E0,3.598237514E0,-6.949387550E0
3.069679823E1,-6.058387280E0,3.598237514E0,-6.949387550E0
3.071679823E1,-6.058387280E0,3.598237514E0,-6.949387550E0
3.073679823E1,-6.058387280E0,3.598237514E0,-6.949387550E0
3.075679823E1,2.710537434E0,1.857624948E-1,1.869174957E0
3.077679823E1,2.710537434E0,1.857624948E-1,1.869174957E0
3.079679823E1,2.710537434E0,1.857624948E-1,1.869174957E0
3.081679823E1,2.710537434E0,1.857624948E-1,1.869174957E0
3.083679823E1,2.710537434E0,1.857624948E-1,1.869174957E0
3.085679823E1,2.121350050E0,-2.455337524E0,1.759862542E0
3.087679823E1,2.121350050E0,-2.455337524E0,1.759862542E0
3.089679823E1,2.121350050E0,-2.455337524E0,1.759862542E0
3.091679823E1,2.121350050E0,-2.455337524E0,1.759862542E0
3.093679823E1,2.121350050E0,-2.455337524E0,1.759862542E0
3.095679823E1,2.121350050E0,-2.455337524E0,1.759862542E0
3.097679823E1,2.121350050E0,-2.455337524E0,1.759862542E0
3.099679823E1,-4.823912621E0,-1.724937439E0,3.175562382E0
3.101679823E1,-4.823912621E0,-1.724937439E0,3.175562382E0
3.103679823E1,-1.550724983E0,-9.602999687E-1,2.172499895E-2
3.105679823E1,-1.550724983E0,-9.602999687E-1,2.172499895E-2
3.107679823E1,-1.550724983E0,-9.602999687E-1,2.172499895E-2
3.109679823E1,4.373875141E0,-3.806687593E0,-5.919374824E-1
3.111679823E1,4.373875141E0,-3.806687593E0,-5.919374824E-1
3.113679823E1,4.373875141E0,-3.806687593E0,-5.919374824E-1
3.115679823E1,4.373875141E0,-3.806687593E0,-5.919374824E-1
3.117679823E1,4.373875141E0,-3.806687593E0,-5.919374824E-1
3.119679823E1,2.031562567E0,3.663137436E0,-3.544062376E0
3.121679823E1,2.031562567E0,3.663137436E0,-3.544062376E0
3.123679823E1,1.302124977E0,2.989525080E0,-2.443924904E0
3.125679823E1,1.302124977E0,2.989525080E0,-2.443924904E0
3.127679823E1,1.302124977E0,2.989525080E0,-2.443924904E0
3.129679823E1,1.302124977E0,2.989525080E0,-2.443924904E0
3.131679823E1,1.302124977E0,2.989525080E0,-2.443924904E0
3.133679823E1,-7.445624828E0,1.562962532E0,-1.322750002E-1
3.135679823E1,-7.445624828E0,1.562962532E0,-1.322750002E-1
3.137679823E1,-2.897537470E0,2.120250016E-1,-5.623750091E-1
3.139679823E1,-2.897537470E0,2.120250016E-1,-5.623750091E-1
3.141679823E1,-2.897537470E0,2.120250016E-1,-5.623750091E-1
3.143679823E1,1.538349986E0,-1.014887452E0,-5.619624853E-1
3.145679823E1,1.538349986E0,-1.014887452E0,-5.619624853E-1
3.147679823E1,1.538349986E0,-1.014887452E0,-5.619624853E-1
3.149679823E1,1.538349986E0,-1.014887452E0,-5.619624853E-1
3.151679823E1,1.538349986E0,-1.014887452E0,-5.619624853E-1
3.153679823E1,1.538349986E0,-1.014887452E0,-5.619624853E-1
3.155679823E1,1.538349986E0,-1.014887452E0,-5.619624853E-1
3.157679823E1,6.382749677E-1,6.155874729E-1,-1.044450045E0
3.159679823E1,6.382749677E-1,6.155874729E-1,-1.044450045E0
3.161679823E1,6.382749677E-1,6.155874729E-1,-1.044450045E0
3.163679823E1,6.382749677E-1,6.155874729E-1,-1.044450045E0
3.165679823E1,6.382749677E-1,6.155874729E-1,-1.044450045E0
3.167679823E1,-1.811562538E0,-1.440037489E0,1.009662509E0
3.169679823E1,-1.811562538E0,-1.440037489E0,1.009662509E0
3.171679823E1,-1.021762490E0,-2.370912552E0,2.037062407E0
3.173679823E1,-1.021762490E0,-2.370912552E0,2.037062407E0
3.175679823E1,-1.021762490E0,-2.370912552E0,2.037062407E0
3.177679823E1,-1.021762490E0,-2.370912552E0,2.037062407E0
3.179679823E1,-1.021762490E0,-2.370912552E0,2.037062407E0
3.181679823E1,-2.877874970E-1,-2.086012602E0,2.141837597E0
3.183679823E1,-2.877874970E-1,-2.086012602E0,2.141837597E0
3.185679823E1,-2.877874970E-1,-2.086012602E0,2.141837597E0
3.187679823E1,-2.877874970E-1,-2.086012602E0,2.141837597E0
3.189679823E1,-2.877874970E-1,-2.086012602E0,2.141837597E0
3.191679823E1,-2.877874970E-1,-2.086012602E0,2.141837597E0
3.193679823E1,-2.877874970E-1,-2.086012602E0,2.141837597E0
3.195679823E1,1.642987490E0,-4.873000085E-1,-1.235574961E0
3.197679823E1,1.642987490E0,-4.873000085E-1,-1.235574961E0
3.199679823E1,1.642987490E0,-4.873000085E-1,-1.235574961E0
3.201679823E1,9.263374805E-1,7.052375078E-1,-1.918125033E0
3.203679823E1,9.263374805E-1,7.052375078E-1,-1.918125033E0
3.205679823E1,3.125374913E-1,2.822462559E0,-2.745462418E0
3.207679823E1,3.125374913E-1,2.822462559E0,-2.745462418E0
3.209679823E1,8.945749998E-1,2.089312553E0,-2.068825006E0
3.211679823E1,8.945749998E-1,2.089312553E0,-2.068825006E0
3.213679823E1,8.945749998E-1,2.089312553E0,-2.068825006E0
3.215679823E1,3.497999907E-1,-3.425812483E0,2.608099937E0
3.217679823E1,3.497999907E-1,-3.425812483E0,2.608099937E0
3.219679823E1,3.497999907E-1,-3.425812483E0,2.608099937E0
3.221679823E1,3.497999907E-1,-3.425812483E0,2.608099937E0
3.223679823E1,3.497999907E-1,-3.425812483E0,2.608099937E0
3.225679823E1,5.431250110E-2,-2.311374903E0,1.851300001E0
3.227679823E1,5.431250110E-2,-2.311374903E0,1.851300001E0
3.229679823E1,5.431250110E-2,-2.311374903E0,1.851300001E0
3.231679823E1,5.431250110E-2,-2.311374903E0,1.851300001E0
3.233679823E1,5.431250110E-2,-2.311374903E0,1.851300001E0
3.235679823E1,5.431250110E-2,-2.311374903E0,1.851300001E0
3.237679823E1,5.431250110E-2,-2.311374903E0,1.851300001E0
3.239679823E1,1.022037506E0,-9.035124779E-1,-2.595312595E0
3.241679823E1,1.022037506E0,-9.035124779E-1,-2.595312595E0
3.243679823E1,-8.390250206E-1,1.813349962E0,-2.718787432E0
3.245679823E1,-8.390250206E-1,1.813349962E0,-2.718787432E0
3.247679823E1,-8.390250206E-1,1.813349962E0,-2.718787432E0
3.249679823E1,-9.846374989E-1,7.250375152E-1,-5.967500210E-1
3.251679823E1,-9.846374989E-1,7.250375152E-1,-5.967500210E-1
3.253679823E1,2.619374990E-1,-1.193362474E0,1.229249954E0
3.255679823E1,2.619374990E-1,-1.193362474E0,1.229249954E0
3.257679823E1,2.619374990E-1,-1.193362474E0,1.229249954E0
3.259679823E1,2.619374990E-1,-1.193362474E0,1.229249954E0
3.261679823E1,2.619374990E-1,-1.193362474E0,1.229249954E0
3.263679823E1,-3.642374873E-1,-9.444875121E-1,3.790050030E0
3.265679823E1,-3.642374873E-1,-9.444875121E-1,3.790050030E0
3.267679823E1,-3.642374873E-1,-9.444875121E-1,3.790050030E0
3.269679823E1,-3.642374873E-1,-9.444875121E-1,3.790050030E0
3.271679823E1,-3.642374873E-1,-9.444875121E-1,3.790050030E0
3.273679823E1,-2.102925062E0,-4.538874924E-1,-3.987500072E-2
3.275679823E1,-2.102925062E0,-4.538874924E-1,-3.987500072E-2
3.277679823E1,-5.284125209E-1,-3.753750026E-2,-1.376787543E0
3.279679823E1,-5.284125209E-1,-3.753750026E-2,-1.376787543E0
3.281679823E1,-5.284125209E-1,-3.753750026E-2,-1.376787543E0
3.283679823E1,1.391775012E0,-1.319587469E0,-1.749137521E0
3.285679823E1,1.391775012E0,-1.319587469E0,-1.749137521E0
3.287679823E1,9.923374653E-1,-1.960474968E0,-1.824074984E0
3.289679823E1,9.923374653E-1,-1.960474968E0,-1.824074984E0
3.291679823E1,9.923374653E-1,-1.960474968E0,-1.824074984E0
3.293679823E1,9.923374653E-1,-1.960474968E0,-1.824074984E0
3.295679823E1,9.923374653E-1,-1.960474968E0,-1.824074984E0
3.297679823E1,4.473975182E0,-8.389149666E0,-7.371374965E-1
3.299679823E1,4.473975182E0,-8.389149666E0,-7.371374965E-1
3.301679823E1,4.302787304E0,-9.170425415E0,-1.638862491E0
3.303679823E1,4.302787304E0,-9.170425415E0,-1.638862491E0
3.305679823E1,4.302787304E0,-9.170425415E0,-1.638862491E0
3.307679823E1,-5.336925030E0,4.589200020E0,1.119249985E-1
3.309679823E1,-5.336925030E0,4.589200020E0,1.119249985E-1
3.311679823E1,-2.035000026E-1,1.099449992E0,6.615124941E-1
3.313679823E1,-2.035000026E-1,1.099449992E0,6.615124941E-1
3.315679823E1,-2.035000026E-1,1.099449992E0,6.615124941E-1
3.317679823E1,-2.035000026E-1,1.099449992E0,6.615124941E-1
3.319679823E1,-2.035000026E-1,1.099449992E0,6.615124941E-1
3.321679823E1,-1.318074942E0,3.531825066E0,1.783650041E0
3.323679823E1,-1.318074942E0,3.531825066E0,1.783650041E0
3.325679823E1,-1.318074942E0,3.531825066E0,1.783650041E0
3.327679823E1,-1.318074942E0,3.531825066E0,1.783650041E0
3.329679823E1,-1.318074942E0,3.531825066E0,1.783650041E0
3.331679823E1,-7.167875171E-1,1.494487524E0,3.845599890E0
3.333679823E1,-7.167875171E-1,1.494487524E0,3.845599890E0
3.335679823E1,-7.167875171E-1,1.494487524E0,3.845599890E0
3.337679823E1,-7.167875171E-1,1.494487524E0,3.845599890E0
3.339679823E1,-7.167875171E-1,1.494487524E0,3.845599890E0
3.341679823E1,-7.167875171E-1,1.494487524E0,3.845599890E0
3.343679823E1,-7.167875171E-1,1.494487524E0,3.845599890E0
3.345679823E1,1.051737547E0,1.583999991E-1,-1.288512468E0
3.347679823E1,1.051737547E0,1.583999991E-1,-1.288512468E0
3.349679823E1,2.047100067E0,-1.036474943E0,-2.009150028E0
3.351679823E1,2.047100067E0,-1.036474943E0,-2.009150028E0
3.353679823E1,2.047100067E0,-1.036474943E0,-2.009150028E0
3.355679823E1,7.741249800E-1,-2.448050022E0,-3.237162590E0
3.357679823E1,7.741249800E-1,-2.448050022E0,-3.237162590E0
3.359679823E1,7.741249800E-1,-2.448050022E0,-3.237162590E0
3.361679823E1,7.741249800E-1,-2.448050022E0,-3.237162590E0
3.363679823E1,7.741249800E-1,-2.448050022E0,-3.237162590E0
3.365679823E1,7.741249800E-1,-2.448050022E0,-3.237162590E0
3.367679823E1,7.741249800E-1,-2.448050022E0,-3.237162590E0
3.369679823E1,5.895587444E0,-6.651837349E0,-2.184875011E0
3.371679823E1,5.895587444E0,-6.651837349E0,-2.184875011E0
3.373679823E1,5.895587444E0,-6.651837349E0,-2.184875011E0
3.375679823E1,5.895587444E0,-6.651837349E0,-2.184875011E0
3.377679823E1,5.895587444E0,-6.651837349E0,-2.184875011E0
3.379679823E1,-2.907025099E0,2.652374983E0,1.760825038E0
3.381679823E1,-2.907025099E0,2.652374983E0,1.760825038E0
3.383679823E1,-3.257787466E0,8.353812218E0,1.676399946E0
3.385679823E1,-3.257787466E0,8.353812218E0,1.676399946E0
3.387679823E1,-3.257787466E0,8.353812218E0,1.676399946E0
3.389679823E1,-2.686199903E0,7.919724941E0,3.292850018E0
3.391679823E1,-2.686199903E0,7.919724941E0,3.292850018E0
3.393679823E1,-2.686199903E0,7.919724941E0,3.292850018E0
3.395679823E1,-2.686199903E0,7.919724941E0,3.292850018E0
3.397679823E1,-2.686199903E0,7.919724941E0,3.292850018E0
3.399679823E1,-2.686199903E0,7.919724941E0,3.292850018E0
3.401679823E1,-2.686199903E0,7.919724941E0,3.292850018E0
3.403679823E1,-1.698949933E0,-4.001250118E-2,6.401862621E0
3.405679823E1,-1.698949933E0,-4.001250118E-2,6.401862621E0
3.407679823E1,-1.698949933E0,-4.001250118E-2,6.401862621E0
3.409679823E1,-1.698949933E0,-4.001250118E-2,6.401862621E0
3.411679823E1,-1.698949933E0,-4.001250118E-2,6.401862621E0
3.413679823E1,1.192124963E0,5.685625076E-1,-2.751787424E0
3.415679823E1,1.192124963E0,5.685625076E-1,-2.751787424E0
3.417679823E1,1.192124963E0,5.685625076E-1,-2.751787424E0
3.419679823E1,1.192124963E0,5.685625076E-1,-2.751787424E0
3.421679823E1,1.192124963E0,5.685625076E-1,-2.751787424E0
3.423679823E1,1.192124963E0,5.685625076E-1,-2.751787424E0
3.425679823E1,1.192124963E0,5.685625076E-1,-2.751787424E0
3.427679823E1,1.153900027E0,-8.765899658E0,-6.693912506E0
3.429679823E1,1.153900027E0,-8.765899658E0,-6.693912506E0
3.431679823E1,1.153900027E0,-8.765899658E0,-6.693912506E0
3.433679823E1,1.153900027E0,-8.765899658E0,-6.693912506E0
3.435679823E1,1.153900027E0,-8.765899658E0,-6.693912506E0
3.437679823E1,2.882137537E0,-5.325924873E0,-1.369225025E0
3.439679823E1,2.882137537E0,-5.325924873E0,-1.369225025E0
3.441679823E1,-1.944250017E-1,-9.583749622E-2,8.349000216E-1
3.443679823E1,-1.944250017E-1,-9.583749622E-2,8.349000216E-1
3.445679823E1,-1.944250017E-1,-9.583749622E-2,8.349000216E-1
3.447679823E1,-1.944250017E-1,-9.583749622E-2,8.349000216E-1
3.449679823E1,-1.944250017E-1,-9.583749622E-2,8.349000216E-1
3.451679823E1,-8.699625134E-1,7.797625065E0,3.955737591E0
3.453679823E1,-8.699625134E-1,7.797625065E0,3.955737591E0
3.455679823E1,-8.699625134E-1,7.797625065E0,3.955737591E0
3.457679823E1,-8.699625134E-1,7.797625065E0,3.955737591E0
3.459679823E1,-8.699625134E-1,7.797625065E0,3.955737591E0
3.461679823E1,-1.426837444E0,2.731849909E0,5.512650013E0
3.463679823E1,-1.426837444E0,2.731849909E0,5.512650013E0
3.465679823E1,-1.426837444E0,2.731849909E0,5.512650013E0
3.467679823E1,-1.426837444E0,2.731849909E0,5.512650013E0
3.469679823E1,-1.426837444E0,2.731849909E0,5.512650013E0
3.471679823E1,1.609437466E0,1.099999994E-3,-1.070850015E0
3.473679823E1,1.609437466E0,1.099999994E-3,-1.070850015E0
3.475679823E1,1.893375039E0,-1.440999985E0,-4.320525169E0
3.477679823E1,1.893375039E0,-1.440999985E0,-4.320525169E0
3.479679823E1,1.893375039E0,-1.440999985E0,-4.320525169E0
3.481679823E1,1.893375039E0,-1.440999985E0,-4.320525169E0
3.483679823E1,1.893375039E0,-1.440999985E0,-4.320525169E0
3.485679823E1,-6.421250105E-2,-3.803662539E0,-4.044012547E0
3.487679823E1,-6.421250105E-2,-3.803662539E0,-4.044012547E0
3.489679823E1,9.170425415E0,-1.623489952E1,-7.361337662E0
3.491679823E1,9.170425415E0,-1.623489952E1,-7.361337662E0
3.493679823E1,9.170425415E0,-1.623489952E1,-7.361337662E0
3.495679823E1,4.175324917E0,-9.610562325E0,-3.251049995E0
3.497679823E1,4.175324917E0,-9.610562325E0,-3.251049995E0
3.499679823E1,-3.570874929E0,5.901087284E0,3.818650007E0
3.501679823E1,-3.570874929E0,5.901087284E0,3.818650007E0
3.503679823E1,-3.570874929E0,5.901087284E0,3.818650007E0
3.505679823E1,-3.570874929E0,5.901087284E0,3.818650007E0
3.507679823E1,-3.570874929E0,5.901087284E0,3.818650007E0
3.509679823E1,-1.777462482E0,6.593400002E0,2.871962547E0
3.511679823E1,-1.777462482E0,6.593400002E0,2.871962547E0
3.513679823E1,-1.777462482E0,6.593400002E0,2.871962547E0
3.515679823E1,-1.777462482E0,6.593400002E0,2.871962547E0
3.517679823E1,-1.777462482E0,6.593400002E0,2.871962547E0
3.519679823E1,-6.712750196E-1,3.528524876E0,5.742962360E0
3.521679823E1,-6.712750196E-1,3.528524876E0,5.742962360E0
3.523679823E1,-3.832124949E0,1.454062462E0,7.978849888E0
3.525679823E1,-3.832124949E0,1.454062462E0,7.978849888E0
3.527679823E1,-3.832124949E0,1.454062462E0,7.978849888E0
3.529679823E1,-3.832124949E0,1.454062462E0,7.978849888E0
3.531679823E1,-3.832124949E0,1.454062462E0,7.978849888E0
3.533679823E1,-3.832124949E0,1.454062462E0,7.978849888E0
3.535679823E1,-3.832124949E0,1.454062462E0,7.978849888E0
3.537679823E1,-3.832124949E0,1.454062462E0,7.978849888E0
3.539679823E1,-3.832124949E0,1.454062462E0,7.978849888E0
3.541679823E1,-3.832124949E0,1.454062462E0,7.978849888E0
3.543679823E1,8.557999730E-1,-1.445400000E0,-4.254112244E0
3.545679823E1,8.557999730E-1,-1.445400000E0,-4.254112244E0
3.547679823E1,-6.417124867E-1,-1.666499972E-1,-2.897125006E0
3.549679823E1,-6.417124867E-1,-1.666499972E-1,-2.897125006E0
3.551679823E1,-6.417124867E-1,-1.666499972E-1,-2.897125006E0
3.553679823E1,-6.417124867E-1,-1.666499972E-1,-2.897125006E0
3.555679823E1,-6.417124867E-1,-1.666499972E-1,-2.897125006E0
3.557679823E1,-1.258619976E1,1.729103661E1,5.156937599E0
3.559679823E1,-1.258619976E1,1.729103661E1,5.156937599E0
3.561679823E1,-1.258619976E1,1.729103661E1,5.156937599E0
3.563679823E1,-1.258619976E1,1.729103661E1,5.156937599E0
3.565679823E1,-1.258619976E1,1.729103661E1,5.156937599E0
3.567679823E1,3.367512465E0,-3.200175047E0,-3.562625051E-1
3.569679823E1,3.367512465E0,-3.200175047E0,-3.562625051E-1
3.571679823E1,3.367512465E0,-3.200175047E0,-3.562625051E-1
3.573679823E1,3.367512465E0,-3.200175047E0,-3.562625051E-1
3.575679823E1,3.367512465E0,-3.200175047E0,-3.562625051E-1
3.577679823E1,2.098249942E-1,1.412400007E0,2.306974888E0
3.579679823E1,2.098249942E-1,1.412400007E0,2.306974888E0
3.581679823E1,-1.788875014E-1,1.679562449E0,3.615149975E0
3.583679823E1,-1.788875014E-1,1.679562449E0,3.615149975E0
3.585679823E1,-1.788875014E-1,1.679562449E0,3.615149975E0
3.587679823E1,-1.788875014E-1,1.679562449E0,3.615149975E0
3.589679823E1,-1.788875014E-1,1.679562449E0,3.615149975E0
3.591679823E1,-1.788875014E-1,1.679562449E0,3.615149975E0
3.593679823E1,-1.788875014E-1,1.679562449E0,3.615149975E0
3.595679823E1,6.470749974E-1,-5.852000117E-1,2.881999910E-1
3.597679823E1,6.470749974E-1,-5.852000117E-1,2.881999910E-1
3.599679823E1,6.470749974E-1,-5.852000117E-1,2.881999910E-1
3.601679823E1,8.709250093E-1,-9.983875155E-1,-1.655225039E0
3.603679823E1,8.709250093E-1,-9.983875155E-1,-1.655225039E0
3.605679823E1,8.709250093E-1,-9.983875155E-1,-1.655225039E0
3.607679823E1,8.709250093E-1,-9.983875155E-1,-1.655225039E0
3.609679823E1,8.709250093E-1,-9.983875155E-1,-1.655225039E0
3.611679823E1,8.709250093E-1,-9.983875155E-1,-1.655225039E0
3.613679823E1,8.709250093E-1,-9.983875155E-1,-1.655225039E0
3.615679823E1,-5.913875103E-1,-8.168874979E-1,-1.630749941E0
3.617679823E1,-5.913875103E-1,-8.168874979E-1,-1.630749941E0
3.619679823E1,-3.532649994E0,3.876812458E0,5.307500064E-2
3.621679823E1,-3.532649994E0,3.876812458E0,5.307500064E-2
3.623679823E1,-3.532649994E0,3.876812458E0,5.307500064E-2
3.625679823E1,2.074462414E0,-3.493737459E0,-8.779374957E-1
3.627679823E1,2.074462414E0,-3.493737459E0,-8.779374957E-1
3.629679823E1,2.582112551E0,-3.270437479E0,-4.875749946E-1
3.631679823E1,2.582112551E0,-3.270437479E0,-4.875749946E-1
3.633679823E1,2.582112551E0,-3.270437479E0,-4.875749946E-1
3.635679823E1,2.582112551E0,-3.270437479E0,-4.875749946E-1
3.637679823E1,2.582112551E0,-3.270437479E0,-4.875749946E-1
3.639679823E1,1.209450006E0,-1.143587470E0,1.363999993E-1
3.641679823E1,1.209450006E0,-1.143587470E0,1.363999993E-1
3.643679823E1,1.209450006E0,-1.143587470E0,1.363999993E-1
3.645679823E1,1.209450006E0,-1.143587470E0,1.363999993E-1
3.647679823E1,1.209450006E0,-1.143587470E0,1.363999993E-1
3.649679823E1,-2.121074915E0,4.519762516E0,2.819987535E0
3.651679823E1,-2.121074915E0,4.519762516E0,2.819987535E0
3.653679823E1,-1.070712447E0,3.269749880E0,3.170199871E0
3.655679823E1,-1.070712447E0,3.269749880E0,3.170199871E0
3.657679823E1,-1.070712447E0,3.269749880E0,3.170199871E0
3.659679823E1,-1.070712447E0,3.269749880E0,3.170199871E0
3.661679823E1,-1.070712447E0,3.269749880E0,3.170199871E0
3.663679823E1,-1.458874941E-1,1.176587462E0,3.001624942E-1
3.665679823E1,-1.458874941E-1,1.176587462E0,3.001624942E-1
3.667679823E1,3.878875077E-1,-2.297624946E-1,-1.178787470E0
3.669679823E1,3.878875077E-1,-2.297624946E-1,-1.178787470E0
3.671679823E1,3.878875077E-1,-2.297624946E-1,-1.178787470E0
3.673679823E1,1.366337538E0,-3.805862427E0,-3.656674862E0
3.675679823E1,1.366337538E0,-3.805862427E0,-3.656674862E0
3.677679823E1,1.366337538E0,-3.805862427E0,-3.656674862E0
3.679679823E1,1.366337538E0,-3.805862427E0,-3.656674862E0
3.681679823E1,1.366337538E0,-3.805862427E0,-3.656674862E0
3.683679823E1,1.577399969E0,-6.358824730E0,-2.366237402E0
3.685679823E1,1.577399969E0,-6.358824730E0,-2.366237402E0
3.687679823E1,2.191474915E0,-5.439774990E0,-2.200000048E0
3.689679823E1,2.191474915E0,-5.439774990E0,-2.200000048E0
3.691679823E1,2.191474915E0,-5.439774990E0,-2.200000048E0
3.693679823E1,2.191474915E0,-5.439774990E0,-2.200000048E0
3.695679823E1,2.191474915E0,-5.439774990E0,-2.200000048E0
3.697679823E1,-6.701750159E-1,-1.188137531E0,1.436187506E0
3.699679823E1,-6.701750159E-1,-1.188137531E0,1.436187506E0
3.701679823E1,3.375625014E-1,1.206562519E0,2.189687490E0
3.703679823E1,3.375625014E-1,1.206562519E0,2.189687490E0
3.705679823E1,3.375625014E-1,1.206562519E0,2.189687490E0
3.707679823E1,7.073000073E-1,1.492287517E0,1.100549936E0
3.709679823E1,7.073000073E-1,1.492287517E0,1.100549936E0
3.711679823E1,7.073000073E-1,1.492287517E0,1.100549936E0
3.713679823E1,7.073000073E-1,1.492287517E0,1.100549936E0
3.715679823E1,7.073000073E-1,1.492287517E0,1.100549936E0
3.717679823E1,7.073000073E-1,1.492287517E0,1.100549936E0
3.719679823E1,7.073000073E-1,1.492287517E0,1.100549936E0
3.721679823E1,4.054875076E-1,-8.601999879E-1,-1.241212487E0
3.723679823E1,4.054875076E-1,-8.601999879E-1,-1.241212487E0
3.725679823E1,4.054875076E-1,-8.601999879E-1,-1.241212487E0
3.727679823E1,4.054875076E-1,-8.601999879E-1,-1.241212487E0
3.729679823E1,4.054875076E-1,-8.601999879E-1,-1.241212487E0
3.731679823E1,-1.027125001E0,-5.810750127E-1,2.543750107E-1
3.733679823E1,-1.027125001E0,-5.810750127E-1,2.543750107E-1
3.735679823E1,-1.212200046E0,9.387124777E-1,1.188962460E0
3.737679823E1,-1.212200046E0,9.387124777E-1,1.188962460E0
3.739679823E1,-1.212200046E0,9.387124777E-1,1.188962460E0
3.741679823E1,-1.212200046E0,9.387124777E-1,1.188962460E0
3.743679823E1,-1.212200046E0,9.387124777E-1,1.188962460E0
3.745679823E1,-1.212200046E0,9.387124777E-1,1.188962460E0
3.747679823E1,-1.212200046E0,9.387124777E-1,1.188962460E0
3.749679823E1,-1.212200046E0,9.387124777E-1,1.188962460E0
3.751679823E1,-1.212200046E0,9.387124777E-1,1.188962460E0
3.753679823E1,-1.212200046E0,9.387124777E-1,1.188962460E0
3.755679823E1,-8.142749667E-1,2.415875047E-1,4.747875035E-1
3.757679823E1,-8.142749667E-1,2.415875047E-1,4.747875035E-1
3.759679823E1,-8.868749738E-1,-4.304574966E0,-1.551825047E0
3.761679823E1,-8.868749738E-1,-4.304574966E0,-1.551825047E0
3.763679823E1,-8.868749738E-1,-4.304574966E0,-1.551825047E0
3.765679823E1,5.101250112E-2,-6.103487492E0,-2.308624983E0
3.767679823E1,5.101250112E-2,-6.103487492E0,-2.308624983E0
3.769679823E1,4.817999899E-1,-5.972587585E0,-2.773649931E0
3.771679823E1,4.817999899E-1,-5.972587585E0,-2.773649931E0
3.773679823E1,7.580375075E-1,-4.088562489E0,-2.270812511E0
3.775679823E1,7.580375075E-1,-4.088562489E0,-2.270812511E0
3.777679823E1,7.580375075E-1,-4.088562489E0,-2.270812511E0
3.779679823E1,2.295150042E0,-1.573549986E0,-9.425625205E-1
3.781679823E1,2.295150042E0,-1.573549986E0,-9.425625205E-1
3.783679823E1,2.295150042E0,-1.573549986E0,-9.425625205E-1
3.785679823E1,2.295150042E0,-1.573549986E0,-9.425625205E-1
3.787679823E1,2.295150042E0,-1.573549986E0,-9.425625205E-1
3.789679823E1,2.063187599E0,-8.857749701E-1,1.347087502E0
3.791679823E1,2.063187599E0,-8.857749701E-1,1.347087502E0
3.793679823E1,2.063187599E0,-8.857749701E-1,1.347087502E0
3.795679823E1,2.063187599E0,-8.857749701E-1,1.347087502E0
3.797679823E1,2.063187599E0,-8.857749701E-1,1.347087502E0
3.799679823E1,2.063187599E0,-8.857749701E-1,1.347087502E0
3.801679823E1,2.063187599E0,-8.857749701E-1,1.347087502E0
3.803679823E1,-9.054374695E-1,-2.989799976E0,1.114575028E0
3.805679823E1,-9.054374695E-1,-2.989799976E0,1.114575028E0
3.807679823E1,-2.259124964E-1,-2.421375036E0,4.372499883E-2
3.809679823E1,-2.259124964E-1,-2.421375036E0,4.372499883E-2
3.811679823E1,-2.259124964E-1,-2.421375036E0,4.372499883E-2
3.813679823E1,-1.868624985E-1,-2.268475056E0,-8.236250281E-2
3.815679823E1,-1.868624985E-1,-2.268475056E0,-8.236250281E-2
3.817679823E1,-2.463999987E-1,-2.520375013E0,-5.475249887E-1
3.819679823E1,-2.463999987E-1,-2.520375013E0,-5.475249887E-1
3.821679823E1,-2.463999987E-1,-2.520375013E0,-5.475249887E-1
3.823679823E1,-2.463999987E-1,-2.520375013E0,-5.475249887E-1
3.825679823E1,-2.463999987E-1,-2.520375013E0,-5.475249887E-1
3.827679823E1,-1.207249984E-1,-2.343549967E0,-1.158712506E0
3.829679823E1,-1.207249984E-1,-2.343549967E0,-1.158712506E0
3.831679823E1,-1.207249984E-1,-2.343549967E0,-1.158712506E0
3.833679823E1,-1.207249984E-1,-2.343549967E0,-1.158712506E0
3.835679823E1,-1.207249984E-1,-2.343549967E0,-1.158712506E0
3.837679823E1,9.196000099E-1,-1.749137521E0,3.162499890E-2
3.839679823E1,9.196000099E-1,-1.749137521E0,3.162499890E-2
3.841679823E1,1.176725030E0,-2.456987381E0,1.319725037E0
3.843679823E1,1.176725030E0,-2.456987381E0,1.319725037E0
3.845679823E1,1.176725030E0,-2.456987381E0,1.319725037E0
3.847679823E1,1.176725030E0,-2.456987381E0,1.319725037E0
3.849679823E1,1.176725030E0,-2.456987381E0,1.319725037E0
3.851679823E1,-7.864999771E-2,-4.847837448E0,2.387274981E0
3.853679823E1,-7.864999771E-2,-4.847837448E0,2.387274981E0
3.855679823E1,-7.864999771E-2,-4.847837448E0,2.387274981E0
3.857679823E1,-7.864999771E-2,-4.847837448E0,2.387274981E0
3.859679823E1,-7.864999771E-2,-4.847837448E0,2.387274981E0
3.861679823E1,-1.042662501E0,-6.791124940E-1,-3.411374986E-1
3.863679823E1,-1.042662501E0,-6.791124940E-1,-3.411374986E-1
3.865679823E1,-1.042662501E0,-6.791124940E-1,-3.411374986E-1
3.867679823E1,-1.042662501E0,-6.791124940E-1,-3.411374986E-1
3.869679823E1,-1.042662501E0,-6.791124940E-1,-3.411374986E-1
3.871679823E1,9.937124848E-1,2.573999882E0,-1.293324947E0
3.873679823E1,9.937124848E-1,2.573999882E0,-1.293324947E0
3.875679823E1,4.787749946E-1,2.434162378E0,-1.237912536E0
3.877679823E1,4.787749946E-1,2.434162378E0,-1.237912536E0
3.879679823E1,4.787749946E-1,2.434162378E0,-1.237912536E0
3.881679823E1,4.787749946E-1,2.434162378E0,-1.237912536E0
3.883679823E1,4.787749946E-1,2.434162378E0,-1.237912536E0
3.885679823E1,1.462450027E0,2.847487450E0,-3.815625012E-1
3.887679823E1,1.462450027E0,2.847487450E0,-3.815625012E-1
3.889679823E1,4.863374829E-1,7.809999585E-2,1.252212524E0
3.891679823E1,4.863374829E-1,7.809999585E-2,1.252212524E0
3.893679823E1,4.863374829E-1,7.809999585E-2,1.252212524E0
3.895679823E1,4.863374829E-1,7.809999585E-2,1.252212524E0
3.897679823E1,4.863374829E-1,7.809999585E-2,1.252212524E0
3.899679823E1,4.863374829E-1,7.809999585E-2,1.252212524E0
3.901679823E1,4.863374829E-1,7.809999585E-2,1.252212524E0
3.903679823E1,4.863374829E-1,7.809999585E-2,1.252212524E0
3.905679823E1,4.863374829E-1,7.809999585E-2,1.252212524E0
3.907679823E1,4.863374829E-1,7.809999585E-2,1.252212524E0
3.909679823E1,-5.169999972E-2,-1.203125000E0,-3.972375095E-1
3.911679823E1,-5.169999972E-2,-1.203125000E0,-3.972375095E-1
3.913679823E1,-4.900499880E-1,-7.056499720E-1,-1.069474936E0
3.915679823E1,-4.900499880E-1,-7.056499720E-1,-1.069474936E0
3.917679823E1,-4.900499880E-1,-7.056499720E-1,-1.069474936E0
3.919679823E1,-8.098749816E-2,-3.630000055E-1,-9.666249752E-1
3.921679823E1,-8.098749816E-2,-3.630000055E-1,-9.666249752E-1
3.923679823E1,-8.098749816E-2,-3.630000055E-1,-9.666249752E-1
3.925679823E1,-8.098749816E-2,-3.630000055E-1,-9.666249752E-1
3.927679823E1,-8.098749816E-2,-3.630000055E-1,-9.666249752E-1
3.929679823E1,-8.098749816E-2,-3.630000055E-1,-9.666249752E-1
3.931679823E1,-8.098749816E-2,-3.630000055E-1,-9.666249752E-1
3.933679823E1,-1.411025047E0,-3.896887541E0,2.071987391E0
3.935679823E1,-1.411025047E0,-3.896887541E0,2.071987391E0
3.937679823E1,-1.411025047E0,-3.896887541E0,2.071987391E0
3.939679823E1,-1.411025047E0,-3.896887541E0,2.071987391E0
3.941679823E1,-1.411025047E0,-3.896887541E0,2.071987391E0
3.943679823E1,-6.080250144E-1,-2.686887503E0,1.131350040E0
3.945679823E1,-6.080250144E-1,-2.686887503E0,1.131350040E0
3.947679823E1,9.473749995E-1,-1.152250051E0,-8.610249758E-1
3.949679823E1,9.473749995E-1,-1.152250051E0,-8.610249758E-1
3.951679823E1,9.473749995E-1,-1.152250051E0,-8.610249758E-1
3.953679823E1,2.884749889E0,1.911112547E0,-2.035825014E0
3.955679823E1,2.884749889E0,1.911112547E0,-2.035825014E0
3.957679823E1,1.110587478E0,7.174337387E0,-2.914312601E0
3.959679823E1,1.110587478E0,7.174337387E0,-2.914312601E0
3.961679823E1,1.110587478E0,7.174337387E0,-2.914312601E0
3.963679823E1,1.110587478E0,7.174337387E0,-2.914312601E0
3.965679823E1,1.110587478E0,7.174337387E0,-2.914312601E0
3.967679823E1,-9.432500005E-1,5.512787342E0,-3.445062399E0
3.969679823E1,-9.432500005E-1,5.512787342E0,-3.445062399E0
3.971679823E1,-8.833000064E-1,2.982374907E0,-1.653712511E0
3.973679823E1,-8.833000064E-1,2.982374907E0,-1.653712511E0
3.975679823E1,-8.833000064E-1,2.982374907E0,-1.653712511E0
3.977679823E1,-7.418124676E-1,5.699374676E-1,6.417124867E-1
3.979679823E1,-7.418124676E-1,5.699374676E-1,6.417124867E-1
3.981679823E1,-7.418124676E-1,5.699374676E-1,6.417124867E-1
3.983679823E1,-7.418124676E-1,5.699374676E-1,6.417124867E-1
3.985679823E1,-1.189374998E-1,-1.495037436E0,1.968312502E0
3.987679823E1,-1.189374998E-1,-1.495037436E0,1.968312502E0
3.989679823E1,-1.189374998E-1,-1.495037436E0,1.968312502E0
3.991679823E1,-1.189374998E-1,-1.495037436E0,1.968312502E0
3.993679823E1,-1.189374998E-1,-1.495037436E0,1.968312502E0
3.995679823E1,-1.189374998E-1,-1.495037436E0,1.968312502E0
3.997679823E1,-1.189374998E-1,-1.495037436E0,1.968312502E0
3.999679823E1,-1.189374998E-1,-1.495037436E0,1.968312502E0
4.001679823E1,-1.962812543E0,-3.007812500E0,1.223337531E0
4.003679823E1,-1.962812543E0,-3.007812500E0,1.223337531E0
4.005679823E1,2.332824945E0,-4.303062439E0,1.445124984E0
4.007679823E1,2.332824945E0,-4.303062439E0,1.445124984E0
4.009679823E1,2.332824945E0,-4.303062439E0,1.445124984E0
4.011679823E1,2.332824945E0,-4.303062439E0,1.445124984E0
4.013679823E1,2.332824945E0,-4.303062439E0,1.445124984E0
4.015679823E1,3.519999981E0,7.741525173E0,-9.796875119E-1
4.017679823E1,3.519999981E0,7.741525173E0,-9.796875119E-1
4.019679823E1,3.519999981E0,7.741525173E0,-9.796875119E-1
4.021679823E1,3.519999981E0,7.741525173E0,-9.796875119E-1
4.023679823E1,3.519999981E0,7.741525173E0,-9.796875119E-1
4.025679823E1,2.850374937E0,3.379887581E0,-2.796750069E-1
4.027679823E1,2.850374937E0,3.379887581E0,-2.796750069E-1
4.029679823E1,-7.328887463E0,-4.151262283E0,-1.799875021E0
4.031679823E1,-7.328887463E0,-4.151262283E0,-1.799875021E0
4.033679823E1,-7.328887463E0,-4.151262283E0,-1.799875021E0
4.035679823E1,-7.328887463E0,-4.151262283E0,-1.799875021E0
4.037679823E1,-7.328887463E0,-4.151262283E0,-1.799875021E0
4.039679823E1,1.084874988E0,-1.885125041E-1,-1.372662544E0
4.041679823E1,1.084874988E0,-1.885125041E-1,-1.372662544E0
4.043679823E1,1.362625003E0,3.834874928E-1,-1.157337546E0
4.045679823E1,1.362625003E0,3.834874928E-1,-1.157337546E0
4.047679823E1,1.362625003E0,3.834874928E-1,-1.157337546E0
4.049679823E1,9.721249938E-1,-3.244999945E-1,-5.131499767E-1
4.051679823E1,9.721249938E-1,-3.244999945E-1,-5.131499767E-1
4.053679823E1,5.198875070E-1,-1.785437465E0,2.590500116E-1
4.055679823E1,5.198875070E-1,-1.785437465E0,2.590500116E-1
4.057679823E1,5.198875070E-1,-1.785437465E0,2.590500116E-1
4.059679823E1,-3.431174994E0,-5.223350048E0,2.564512491E0
4.061679823E1,-3.431174994E0,-5.223350048E0,2.564512491E0
4.063679823E1,-4.132012367E0,-4.789262295E0,2.839925051E0
4.065679823E1,-4.132012367E0,-4.789262295E0,2.839925051E0
4.067679823E1,-4.132012367E0,-4.789262295E0,2.839925051E0
4.069679823E1,-4.132012367E0,-4.789262295E0,2.839925051E0
4.071679823E1,-4.132012367E0,-4.789262295E0,2.839925051E0
4.073679823E1,-7.975000143E-2,-1.419275045E0,-1.189512491E0
4.075679823E1,-7.975000143E-2,-1.419275045E0,-1.189512491E0
4.077679823E1,3.895237446E0,-1.332649946E0,-1.160087466E0
4.079679823E1,3.895237446E0,-1.332649946E0,-1.160087466E0
4.081679823E1,3.895237446E0,-1.332649946E0,-1.160087466E0
4.083679823E1,2.502637386E0,1.371974945E0,-2.939337492E0
4.085679823E1,2.502637386E0,1.371974945E0,-2.939337492E0
4.087679823E1,8.425999880E-1,2.791662455E0,-3.604012489E0
4.089679823E1,8.425999880E-1,2.791662455E0,-3.604012489E0
4.091679823E1,8.425999880E-1,2.791662455E0,-3.604012489E0
4.093679823E1,8.425999880E-1,2.791662455E0,-3.604012489E0
4.095679823E1,8.425999880E-1,2.791662455E0,-3.604012489E0
4.097679823E1,8.425999880E-1,2.791662455E0,-3.604012489E0
4.099679823E1,8.425999880E-1,2.791662455E0,-3.604012489E0
