Time (s),ax,ay,az,gx,gy,gz
5.01290067,6.24600029,-21.0150013,-38.16795349,-0.8850874901,-0.2263250053,-0.01306249946
5.03290067,6.24600029,-21.0150013,-38.16795349,-0.8850874901,-0.2263250053,-0.01306249946
5.05290067,6.24600029,-21.0150013,-38.16795349,-0.8850874901,-0.2263250053,-0.01306249946
5.07290067,6.24600029,-21.0150013,-38.16795349,-0.8850874901,-0.2263250053,-0.01306249946
5.09290067,6.24600029,-21.0150013,-38.16795349,-0.8850874901,-0.2263250053,-0.01306249946
5.11290067,11.3010006,1.636950135,-10.4779501,-0.06737499684,-1.110450029,0.2444749922
5.13290067,11.3010006,1.636950135,-10.4779501,-0.06737499684,-1.110450029,0.2444749922
5.15290067,11.10900021,2.287950039,-4.600050449,0.5803874731,-2.309587479,-0.4346374869
5.17290067,11.10900021,2.287950039,-4.600050449,0.5803874731,-2.309587479,-0.4346374869
5.19290067,11.10900021,2.287950039,-4.600050449,0.5803874731,-2.309587479,-0.4346374869
5.21290067,7.854000568,-7.707000256,1.105949998,0.5803874731,-2.309587479,-0.4346374869
5.23290067,7.854000568,-7.707000256,1.105949998,0.5803874731,-2.309587479,-0.4346374869
5.25290067,1.591950059,-39.07305145,6.027000427,0.628099978,-5.591024876,-2.81159997
5.27290067,1.591950059,-39.07305145,6.027000427,0.628099978,-5.591024876,-2.81159997
5.29290067,1.591950059,-39.07305145,6.027000427,-1.322474957,-2.310687542,-1.125162482
5.31290067,1.591950059,-39.07305145,6.027000427,-1.322474957,-2.310687542,-1.125162482
5.33290067,1.591950059,-39.07305145,6.027000427,-1.322474957,-2.310687542,-1.125162482
5.35290067,-0.3409500122,-3.895950079,2.082000017,-8.224012375,0.2684000134,-0.906262517
5.37290067,-0.3409500122,-3.895950079,2.082000017,-8.224012375,0.2684000134,-0.906262517
5.39290067,-0.724050045,1.407000065,4.264950275,-6.805562496,5.809925079,1.487475038
5.41290067,-0.724050045,1.407000065,4.264950275,-6.805562496,5.809925079,1.487475038
5.43290067,-0.724050045,1.407000065,4.264950275,-6.805562496,5.809925079,1.487475038
5.45290067,3.258000135,2.001000166,2.370000124,-6.805562496,5.809925079,1.487475038
5.47290067,3.258000135,2.001000166,2.370000124,-6.805562496,5.809925079,1.487475038
5.49290067,0.7690500617,-1.962000132,-0.1759500057,-3.715662479,3.666574955,2.520925045
5.51290067,0.7690500617,-1.962000132,-0.1759500057,-3.715662479,3.666574955,2.520925045
5.53290067,0.7690500617,-1.962000132,-0.1759500057,-9.216487885,6.592162609,10.78563786
5.55290067,0.7690500617,-1.962000132,-0.1759500057,-9.216487885,6.592162609,10.78563786
5.57290067,0.7690500617,-1.962000132,-0.1759500057,-9.216487885,6.592162609,10.78563786
5.59290067,-15.20100117,-36.25800323,6.601950169,5.694012642,-7.581062317,2.182399988
5.61290067,-15.20100117,-36.25800323,6.601950169,5.694012642,-7.581062317,2.182399988
5.63290067,-15.20100117,-36.25800323,6.601950169,3.069824934,-4.792699814,0.05362499878
5.65290067,-15.20100117,-36.25800323,6.601950169,3.069824934,-4.792699814,0.05362499878
5.67290067,-15.20100117,-36.25800323,6.601950169,3.069824934,-4.792699814,0.05362499878
5.69290067,1.687950134,-12.11100101,7.060950279,-1.591699958,-0.1057374999,-1.988937497
5.71290067,1.687950134,-12.11100101,7.060950279,-1.591699958,-0.1057374999,-1.988937497
5.73290067,6.322050095,1.599000096,7.501950264,-0.3757874966,-0.524012506,-1.526112437
5.75290067,6.322050095,1.599000096,7.501950264,-0.3757874966,-0.524012506,-1.526112437
5.77290067,6.322050095,1.599000096,7.501950264,-0.3757874966,-0.524012506,-1.526112437
5.79290067,10.93695068,5.56305027,-19.45905113,-0.3757874966,-0.524012506,-1.526112437
5.81290067,10.93695068,5.56305027,-19.45905113,-0.3757874966,-0.524012506,-1.526112437
5.83290067,11.35800076,-0.9090000391,-4.044000149,1.02176249,-11.38362503,-8.148937225
5.85290067,11.35800076,-0.9090000391,-4.044000149,1.02176249,-11.38362503,-8.148937225
5.87290067,11.35800076,-0.9090000391,-4.044000149,4.490337372,-12.05214977,-10.20800018
5.89290067,11.35800076,-0.9090000391,-4.044000149,4.490337372,-12.05214977,-10.20800018
5.91290067,11.35800076,-0.9090000391,-4.044000149,4.490337372,-12.05214977,-10.20800018
5.93290067,11.35800076,-0.9090000391,-4.044000149,1.750237465,-1.312987447,-1.361799955
5.95290067,11.35800076,-0.9090000391,-4.044000149,1.750237465,-1.312987447,-1.361799955
5.97290067,11.35800076,-0.9090000391,-4.044000149,-0.2452999949,4.094887257,1.788324952
5.99290067,11.35800076,-0.9090000391,-4.044000149,-0.2452999949,4.094887257,1.788324952
6.01290067,11.35800076,-0.9090000391,-4.044000149,-0.2452999949,4.094887257,1.788324952
6.03290067,0.3090000153,-1.138050079,0.7039500475,-0.2452999949,4.094887257,1.788324952
6.05290067,0.3090000153,-1.138050079,0.7039500475,-0.2452999949,4.094887257,1.788324952
6.07290067,2.109000206,1.924050093,-1.497000098,-1.901350021,7.252987385,2.898087502
6.09290067,2.109000206,1.924050093,-1.497000098,-1.901350021,7.252987385,2.898087502
6.11290067,2.109000206,1.924050093,-1.497000098,-1.901350021,7.252987385,2.898087502
6.13290067,2.109000206,1.924050093,-1.497000098,-1.901350021,7.252987385,2.898087502
6.15290067,2.109000206,1.924050093,-1.497000098,-1.901350021,7.252987385,2.898087502
6.17290067,1.611000061,-2.824050188,1.240050077,1.515112519,1.358912468,0.2512125075
6.19290067,1.611000061,-2.824050188,1.240050077,1.515112519,1.358912468,0.2512125075
6.21290067,-22.70700073,-33.84495163,-3.853050232,10.36323738,-20.06262398,-9.66432476
6.23290067,-22.70700073,-33.84495163,-3.853050232,10.36323738,-20.06262398,-9.66432476
6.25290067,-22.70700073,-33.84495163,-3.853050232,10.36323738,-20.06262398,-9.66432476
6.27290067,-10.75800037,-28.4640007,2.848050117,10.36323738,-20.06262398,-9.66432476
6.29290067,-10.75800037,-28.4640007,2.848050117,10.36323738,-20.06262398,-9.66432476
6.31290067,-3.826050282,-2.88105011,-9.061050415,1.597474933,1.924312472,3.019087553
6.33290067,-3.826050282,-2.88105011,-9.061050415,1.597474933,1.924312472,3.019087553
6.35290067,-3.826050282,-2.88105011,-9.061050415,1.597474933,1.924312472,3.019087553
6.37290067,-3.826050282,-2.88105011,-9.061050415,1.597474933,1.924312472,3.019087553
6.39290067,-3.826050282,-2.88105011,-9.061050415,1.597474933,1.924312472,3.019087553
6.41290067,1.744950056,-8.548950195,1.068000078,0.2495625019,1.801800013,1.891037464
6.43290067,1.744950056,-8.548950195,1.068000078,0.2495625019,1.801800013,1.891037464
6.45290067,6.418050289,-7.707000256,3.231000185,-0.09061250091,1.179199934,0.6478999853
6.47290067,6.418050289,-7.707000256,3.231000185,-0.09061250091,1.179199934,0.6478999853
6.49290067,6.418050289,-7.707000256,3.231000185,-0.09061250091,1.179199934,0.6478999853
6.51290067,10.59195042,-7.285050392,4.131000042,-0.09061250091,1.179199934,0.6478999853
6.53290067,10.59195042,-7.285050392,4.131000042,-0.09061250091,1.179199934,0.6478999853
6.55290067,10.59195042,-7.285050392,4.131000042,0.1473999918,-6.240849972,-4.476174831
6.57290067,10.59195042,-7.285050392,4.131000042,0.1473999918,-6.240849972,-4.476174831
6.59290067,10.59195042,-7.285050392,4.131000042,0.1473999918,-6.240849972,-4.476174831
6.61290067,10.59195042,-7.285050392,4.131000042,0.1473999918,-6.240849972,-4.476174831
6.63290067,10.59195042,-7.285050392,4.131000042,0.1473999918,-6.240849972,-4.476174831
6.65290067,1.803000093,-11.89995098,1.642050028,-2.13551259,1.592387438,-0.6381375194
6.67290067,1.803000093,-11.89995098,1.642050028,-2.13551259,1.592387438,-0.6381375194
6.69290067,1.803000093,-11.89995098,1.642050028,-2.13551259,1.592387438,-0.6381375194
6.71290067,1.803000093,-11.89995098,1.642050028,-2.13551259,1.592387438,-0.6381375194
6.73290067,1.803000093,-11.89995098,1.642050028,-2.13551259,1.592387438,-0.6381375194
6.75290067,-0.6660000086,-5.313000202,4.360949993,-2.188862562,6.448337555,0.7196750045
6.77290067,-0.6660000086,-5.313000202,4.360949993,-2.188862562,6.448337555,0.7196750045
6.79290067,-0.3790500164,-3.168000221,4.687050343,-0.8944374919,5.359612465,1.359187484
6.81290067,-0.3790500164,-3.168000221,4.687050343,-0.8944374919,5.359612465,1.359187484
6.83290067,-0.3790500164,-3.168000221,4.687050343,-0.8944374919,5.359612465,1.359187484
6.85290067,0.3480000198,-7.228050232,2.944050074,-0.8944374919,5.359612465,1.359187484
6.87290067,0.3480000198,-7.228050232,2.944050074,-0.8944374919,5.359612465,1.359187484
6.89290067,0.3480000198,-7.228050232,2.944050074,1.655637503,1.495312452,0.1317249984
6.91290067,0.3480000198,-7.228050232,2.944050074,1.655637503,1.495312452,0.1317249984
6.93290067,0.3480000198,-7.228050232,2.944050074,1.655637503,1.495312452,0.1317249984
6.95290067,0.3480000198,-7.228050232,2.944050074,1.655637503,1.495312452,0.1317249984
6.97290067,0.3480000198,-7.228050232,2.944050074,1.655637503,1.495312452,0.1317249984
6.99290067,0.4819500148,-9.56400013,-3.853050232,-0.06682500243,1.585787535,-1.427250028
7.01290067,0.4819500148,-9.56400013,-3.853050232,-0.06682500243,1.585787535,-1.427250028
7.03290067,-1.317000031,-8.2999506,0.9720000625,-1.646562457,4.031774998,-1.055037498
7.07290067,-1.317000031,-8.2999506,0.9720000625,-1.646562457,4.031774998,-1.055037498
7.09290067,0.06000000238,-7.515000343,1.929000139,-1.646562457,4.031774998,-1.055037498
7.11290067,0.06000000238,-7.515000343,1.929000139,-1.646562457,4.031774998,-1.055037498
7.13290067,-1.528050065,-14.98305035,1.009950042,-1.07249999,2.956662416,-0.2461249977
7.15290067,-1.528050065,-14.98305035,1.009950042,-1.07249999,2.956662416,-0.2461249977
7.17290067,-1.528050065,-14.98305035,1.009950042,-1.07249999,2.956662416,-0.2461249977
7.19290067,-1.528050065,-14.98305035,1.009950042,-1.07249999,2.956662416,-0.2461249977
7.21290067,-1.528050065,-14.98305035,1.009950042,-1.07249999,2.956662416,-0.2461249977
7.23290067,-3.136950254,-8.683050156,1.795050144,0.4538874924,0.2480500042,1.548799992
7.25290067,-3.136950254,-8.683050156,1.795050144,0.4538874924,0.2480500042,1.548799992
7.27290067,-3.136950254,-8.683050156,1.795050144,0.7295749784,-0.2711499929,1.595549941
7.29290067,-3.136950254,-8.683050156,1.795050144,0.7295749784,-0.2711499929,1.595549941
7.31290067,-3.136950254,-8.683050156,1.795050144,0.7295749784,-0.2711499929,1.595549941
7.33290067,-1.948950052,-8.683050156,1.411950111,0.7295749784,-0.2711499929,1.595549941
7.35290067,-1.948950052,-8.683050156,1.411950111,0.7295749784,-0.2711499929,1.595549941
7.37290067,-1.948950052,-8.683050156,1.411950111,0.7295749784,-0.2711499929,1.595549941
7.39290067,-1.948950052,-8.683050156,1.411950111,0.7295749784,-0.2711499929,1.595549941
7.41290067,-1.948950052,-8.683050156,1.411950111,0.7295749784,-0.2711499929,1.595549941
7.43290067,-1.948950052,-8.683050156,1.411950111,0.7295749784,-0.2711499929,1.595549941
7.45290067,-1.948950052,-8.683050156,1.411950111,0.7295749784,-0.2711499929,1.595549941
7.47290067,4.924050331,-10.19595051,1.068000078,0.2036374956,2.845424891,-1.161599994
7.49290067,4.924050331,-10.19595051,1.068000078,0.2036374956,2.845424891,-1.161599994
7.51290067,6.054000378,-8.089950562,1.738050103,-0.07961250097,4.272812366,-2.562862396
7.53290067,6.054000378,-8.089950562,1.738050103,-0.07961250097,4.272812366,-2.562862396
7.55290067,6.054000378,-8.089950562,1.738050103,-0.07961250097,4.272812366,-2.562862396
7.57290067,2.875050068,-12.85800076,0.8760000467,-0.6139374971,5.040887356,-3.246512413
7.59290067,2.875050068,-12.85800076,0.8760000467,-0.6139374971,5.040887356,-3.246512413
7.61290067,2.875050068,-12.85800076,0.8760000467,-0.5344625115,3.908025026,-2.310687542
7.63290067,2.875050068,-12.85800076,0.8760000467,-0.5344625115,3.908025026,-2.310687542
7.65290067,2.875050068,-12.85800076,0.8760000467,-0.5344625115,3.908025026,-2.310687542
7.67290067,-0.4170000255,-9.660000801,-1.363050103,-0.5344625115,3.908025026,-2.310687542
7.69290067,-0.4170000255,-9.660000801,-1.363050103,-0.5344625115,3.908025026,-2.310687542
7.71290067,-0.4170000255,-9.660000801,-1.363050103,-0.5344625115,3.908025026,-2.310687542
7.73290067,-0.4170000255,-9.660000801,-1.363050103,-0.5344625115,3.908025026,-2.310687542
7.75290067,-0.4170000255,-9.660000801,-1.363050103,-0.5344625115,3.908025026,-2.310687542
7.77290067,-0.4170000255,-9.660000801,-1.363050103,-0.5344625115,3.908025026,-2.310687542
7.79290067,-0.4170000255,-9.660000801,-1.363050103,-0.5344625115,3.908025026,-2.310687542
7.81290067,1.458000064,-10.00500011,3.174000263,0.1868624985,-0.678425014,0.8610249758
7.83290067,1.458000064,-10.00500011,3.174000263,0.1868624985,-0.678425014,0.8610249758
7.85290067,0.06000000238,-8.242950439,0.09105000645,0.5059999824,-1.105774999,0.5389999747
7.87290067,0.06000000238,-8.242950439,0.09105000645,0.5059999824,-1.105774999,0.5389999747
7.89290067,0.06000000238,-8.242950439,0.09105000645,0.5059999824,-1.105774999,0.5389999747
7.91290067,-0.7050000429,-6.289950371,0.2059500068,0.5059999824,-1.105774999,0.5389999747
7.93290067,-0.7050000429,-6.289950371,0.2059500068,0.5059999824,-1.105774999,0.5389999747
7.95290067,-0.7050000429,-6.289950371,0.2059500068,0.5059999824,-1.105774999,0.5389999747
7.97290067,-0.7050000429,-6.289950371,0.2059500068,0.5059999824,-1.105774999,0.5389999747
7.99290067,-0.7050000429,-6.289950371,0.2059500068,0.5059999824,-1.105774999,0.5389999747
8.01290067,-0.7050000429,-6.289950371,0.2059500068,0.5059999824,-1.105774999,0.5389999747
8.03290067,-0.7050000429,-6.289950371,0.2059500068,0.5059999824,-1.105774999,0.5389999747
8.05290067,-0.1680000126,-20.28795052,3.519000053,0.3704249859,-2.055900097,0.120312497
8.07290067,-0.1680000126,-20.28795052,3.519000053,0.3704249859,-2.055900097,0.120312497
8.09290067,-0.1680000126,-20.28795052,3.519000053,0.3704249859,-2.055900097,0.120312497
8.11290067,-0.1680000126,-20.28795052,3.519000053,0.3704249859,-2.055900097,0.120312497
8.13290067,-0.1680000126,-20.28795052,3.519000053,0.3704249859,-2.055900097,0.120312497
8.15290067,-5.683050156,-6.922050476,0.4159500301,0.3704249859,-2.055900097,0.120312497
8.17290067,-5.683050156,-6.922050476,0.4159500301,0.3704249859,-2.055900097,0.120312497
8.19290067,-5.683050156,-6.922050476,0.4159500301,-0.6875,-2.171262503,1.770587444
8.21290067,-5.683050156,-6.922050476,0.4159500301,-0.6875,-2.171262503,1.770587444
8.23290067,-5.683050156,-6.922050476,0.4159500301,-0.8492000103,-1.96776247,2.221037388
8.25290067,-5.683050156,-6.922050476,0.4159500301,-0.8492000103,-1.96776247,2.221037388
8.27290067,-5.683050156,-6.922050476,0.4159500301,-0.8492000103,-1.96776247,2.221037388
8.29290067,2.434950113,-9.43005085,-3.508050203,-0.4504500031,-1.687950015,1.36482501
8.31290067,2.434950113,-9.43005085,-3.508050203,-0.4504500031,-1.687950015,1.36482501
8.33290067,2.434950113,-9.43005085,-3.508050203,-0.4504500031,-1.687950015,1.36482501
8.35290067,2.434950113,-9.43005085,-3.508050203,-0.4504500031,-1.687950015,1.36482501
8.37290067,2.434950113,-9.43005085,-3.508050203,-0.4504500031,-1.687950015,1.36482501
8.39290067,0.4240500331,-8.701950073,2.025000095,-0.4504500031,-1.687950015,1.36482501
8.41290067,0.4240500331,-8.701950073,2.025000095,-0.4504500031,-1.687950015,1.36482501
8.43290067,-0.45600003,-12.76200104,1.411950111,0.5850625038,-2.265587568,-1.363037467
8.45290067,-0.45600003,-12.76200104,1.411950111,0.5850625038,-2.265587568,-1.363037467
8.47290067,-0.45600003,-12.76200104,1.411950111,0.5850625038,-2.265587568,-1.363037467
8.49290067,0.9990000725,-14.83005047,1.8910501,0.5850625038,-2.265587568,-1.363037467
8.51290067,0.9990000725,-14.83005047,1.8910501,0.5850625038,-2.265587568,-1.363037467
8.53290067,5.020050049,-12.95295048,-2.875950098,0.07108750194,-1.580425024,-0.8971874714
8.55290067,5.020050049,-12.95295048,-2.875950098,0.07108750194,-1.580425024,-0.8971874714
8.57290067,5.020050049,-12.95295048,-2.875950098,-0.1727000028,-0.8659750223,-0.950124979
8.59290067,5.020050049,-12.95295048,-2.875950098,-0.1727000028,-0.8659750223,-0.950124979
8.61290067,5.020050049,-12.95295048,-2.875950098,-0.1727000028,-0.8659750223,-0.950124979
8.63290067,4.693950176,-11.72805023,3.250950098,-0.5202999711,-0.02419999987,-1.17741251
8.65290067,4.693950176,-11.72805023,3.250950098,-0.5202999711,-0.02419999987,-1.17741251
8.67290067,-5.224050045,-22.47105026,3.307950258,0.5028374791,-3.808062553,-0.5127375126
8.69290067,-5.224050045,-22.47105026,3.307950258,0.5028374791,-3.808062553,-0.5127375126
8.71290067,-5.224050045,-22.47105026,3.307950258,0.5028374791,-3.808062553,-0.5127375126
8.73290067,-7.12005043,-14.98305035,7.770000458,0.5028374791,-3.808062553,-0.5127375126
8.75290067,-7.12005043,-14.98305035,7.770000458,0.5028374791,-3.808062553,-0.5127375126
8.77290067,-2.887950182,-3.724050283,-8.736000061,0.4779500067,-2.036649942,1.499850035
8.79290067,-2.887950182,-3.724050283,-8.736000061,0.4779500067,-2.036649942,1.499850035
8.81290067,-2.887950182,-3.724050283,-8.736000061,0.4779500067,-2.036649942,1.499850035
8.83290067,-2.887950182,-3.724050283,-8.736000061,0.4779500067,-2.036649942,1.499850035
8.85290067,-2.887950182,-3.724050283,-8.736000061,0.4779500067,-2.036649942,1.499850035
8.87290067,-5.338950157,-2.479050159,1.258950114,0.6527125239,0.06875000149,2.577712536
8.89290067,-5.338950157,-2.479050159,1.258950114,0.6527125239,0.06875000149,2.577712536
8.91290067,-5.338950157,-2.479050159,1.258950114,0.6527125239,0.06875000149,2.577712536
8.93290067,-5.338950157,-2.479050159,1.258950114,0.6527125239,0.06875000149,2.577712536
8.95290067,-5.338950157,-2.479050159,1.258950114,0.6527125239,0.06875000149,2.577712536
8.97290067,10.49700069,-14.44695091,2.829000235,0.6527125239,0.06875000149,2.577712536
8.99290067,10.49700069,-14.44695091,2.829000235,0.6527125239,0.06875000149,2.577712536
9.01290067,-0.7620000243,-1.656000137,1.795050144,0.3408625126,-0.8159250021,-3.062949896
9.03290067,-0.7620000243,-1.656000137,1.795050144,0.3408625126,-0.8159250021,-3.062949896
9.05290067,-0.7620000243,-1.656000137,1.795050144,0.3408625126,-0.8159250021,-3.062949896
9.07290067,-0.7620000243,-1.656000137,1.795050144,0.3408625126,-0.8159250021,-3.062949896
9.09290067,-0.7620000243,-1.656000137,1.795050144,0.3408625126,-0.8159250021,-3.062949896
9.11290067,-9.666000366,-15.92205048,-0.5779500008,-4.525400162,2.880349874,0.3625875115
9.13290067,-9.666000366,-15.92205048,-0.5779500008,-4.525400162,2.880349874,0.3625875115
9.15290067,-10.06905079,-12.58995056,1.35495007,-1.783100009,1.417487502,0.6654999852
9.17290067,-10.06905079,-12.58995056,1.35495007,-1.783100009,1.417487502,0.6654999852
9.19290067,-10.06905079,-12.58995056,1.35495007,-1.783100009,1.417487502,0.6654999852
9.21290067,-4.726050377,-12.03405094,6.313950062,-1.783100009,1.417487502,0.6654999852
9.23290067,-4.726050377,-12.03405094,6.313950062,-1.783100009,1.417487502,0.6654999852
9.25290067,-4.726050377,-12.03405094,6.313950062,0.06984999776,-0.1621125042,2.226537466
9.27290067,-4.726050377,-12.03405094,6.313950062,0.06984999776,-0.1621125042,2.226537466
9.29290067,-4.726050377,-12.03405094,6.313950062,3.681287527,-0.7760499716,-0.7519875169
9.31290067,-4.726050377,-12.03405094,6.313950062,3.681287527,-0.7760499716,-0.7519875169
9.33290067,-4.726050377,-12.03405094,6.313950062,3.681287527,-0.7760499716,-0.7519875169
9.35290067,19.78395081,-3.301950216,-1.306050062,3.106812477,-0.3055250049,-2.125887394
9.37290067,19.78395081,-3.301950216,-1.306050062,3.106812477,-0.3055250049,-2.125887394
9.39290067,7.854000568,6.999000549,-10.91895008,3.106812477,-0.3055250049,-2.125887394
9.39290067,7.854000568,6.999000549,-10.91895008,3.106812477,-0.3055250049,-2.125887394
9.43290067,7.854000568,6.999000549,-10.91895008,3.106812477,-0.3055250049,-2.125887394
9.45290067,3.736950159,-2.785050154,0.913950026,-3.919437408,9.859575272,-1.926100016
9.47290067,3.736950159,-2.785050154,0.913950026,-3.919437408,9.859575272,-1.926100016
9.49290067,-0.9540000558,-33.04095078,-10.00005054,-4.417600155,6.80267477,-1.487887502
9.51290067,-0.9540000558,-33.04095078,-10.00005054,-4.417600155,6.80267477,-1.487887502
9.53290067,-0.9540000558,-33.04095078,-10.00005054,-4.417600155,6.80267477,-1.487887502
9.55290067,-11.65800095,-39.07305145,11.04405022,-4.417600155,6.80267477,-1.487887502
9.57290067,-11.65800095,-39.07305145,11.04405022,-4.417600155,6.80267477,-1.487887502
9.59290067,-11.65800095,-39.07305145,11.04405022,3.306187391,-3.945562363,2.25266242
9.61290067,-11.65800095,-39.07305145,11.04405022,3.306187391,-3.945562363,2.25266242
9.63290067,-11.65800095,-39.07305145,11.04405022,2.316324949,-3.864574909,3.353212595
9.65290067,-11.65800095,-39.07305145,11.04405022,2.316324949,-3.864574909,3.353212595
9.67290067,-11.65800095,-39.07305145,11.04405022,2.316324949,-3.864574909,3.353212595
9.69290067,1.228050113,1.771050096,2.982000113,2.028262377,-2.651000023,2.441037416
9.71290067,1.228050113,1.771050096,2.982000113,2.028262377,-2.651000023,2.441037416
9.73290067,4.33095026,1.254000068,1.968000054,1.685199976,-1.906299949,1.669662476
9.75290067,4.33095026,1.254000068,1.968000054,1.685199976,-1.906299949,1.669662476
9.77290067,4.33095026,1.254000068,1.968000054,1.685199976,-1.906299949,1.669662476
9.79290067,0.2520000041,-1.464000106,2.619000196,1.685199976,-1.906299949,1.669662476
9.81290067,0.2520000041,-1.464000106,2.619000196,1.685199976,-1.906299949,1.669662476
9.83290067,-4.80300045,-4.450950146,3.748050213,12.16819954,-12.28232479,8.951662064
9.85290067,-4.80300045,-4.450950146,3.748050213,12.16819954,-12.28232479,8.951662064
9.87290067,-4.80300045,-4.450950146,3.748050213,12.16819954,-12.28232479,8.951662064
9.89290067,-4.80300045,-4.450950146,3.748050213,12.16819954,-12.28232479,8.951662064
9.91290067,-4.80300045,-4.450950146,3.748050213,12.16819954,-12.28232479,8.951662064
9.93290067,-4.80300045,-4.450950146,3.748050213,-1.239150047,0.528275013,0.4032875001
9.95290067,-4.80300045,-4.450950146,3.748050213,-1.239150047,0.528275013,0.4032875001
9.97290067,-4.80300045,-4.450950146,3.748050213,-3.720337391,2.673825026,-1.062875032
9.99290067,-4.80300045,-4.450950146,3.748050213,-3.720337391,2.673825026,-1.062875032
10.01290067,-4.80300045,-4.450950146,3.748050213,-2.190787554,3.039025068,-1.610949993
10.03290067,11.53095055,-0.5640000105,1.35495007,-2.190787554,3.039025068,-1.610949993
10.05290067,11.53095055,-0.5640000105,1.35495007,-2.190787554,3.039025068,-1.610949993
10.07290067,1.918050051,-3.475050211,-4.561050415,-2.035274982,3.771212578,-1.69372499
10.09290067,1.918050051,-3.475050211,-4.561050415,-2.035274982,3.771212578,-1.69372499
10.11290067,1.918050051,-3.475050211,-4.561050415,-2.035274982,3.771212578,-1.69372499
10.13290067,1.918050051,-3.475050211,-4.561050415,-2.035274982,3.771212578,-1.69372499
10.15290067,1.918050051,-3.475050211,-4.561050415,-2.035274982,3.771212578,-1.69372499
10.17290067,-0.6660000086,-25.93695068,13.7629509,-3.036000013,3.325162411,-1.392737508
10.19290067,-0.6660000086,-25.93695068,13.7629509,-3.036000013,3.325162411,-1.392737508
10.21290067,0.06000000238,-6.652950287,-0.5209500194,1.652474999,2.696512461,0.05788749829
10.23290067,0.06000000238,-6.652950287,-0.5209500194,1.652474999,2.696512461,0.05788749829
10.25290067,0.06000000238,-6.652950287,-0.5209500194,1.652474999,2.696512461,0.05788749829
10.27290067,-1.030050039,-0.8509500623,1.258950114,1.652474999,2.696512461,0.05788749829
10.29290067,-1.030050039,-0.8509500623,1.258950114,1.652474999,2.696512461,0.05788749829
10.31290067,-1.030050039,-0.8509500623,1.258950114,1.261562467,1.380774975,1.829162478
10.33290067,-1.030050039,-0.8509500623,1.258950114,1.261562467,1.380774975,1.829162478
10.35290067,-1.030050039,-0.8509500623,1.258950114,1.261562467,1.380774975,1.829162478
10.37290067,-1.030050039,-0.8509500623,1.258950114,1.261562467,1.380774975,1.829162478
10.39290067,-1.030050039,-0.8509500623,1.258950114,1.261562467,1.380774975,1.829162478
10.41290067,4.618050098,-6.558000088,0.2250000089,1.024787545,3.722812414,-3.551625013
10.43290067,4.618050098,-6.558000088,0.2250000089,1.024787545,3.722812414,-3.551625013
10.45290067,4.618050098,-6.558000088,0.2250000089,1.024787545,3.722812414,-3.551625013
10.47290067,4.618050098,-6.558000088,0.2250000089,1.024787545,3.722812414,-3.551625013
10.49290067,4.618050098,-6.558000088,0.2250000089,1.024787545,3.722812414,-3.551625013
10.51290067,-7.942950249,-20.40300179,3.978000164,0.02419999987,0.1520749927,1.041562438
10.53290067,-7.942950249,-20.40300179,3.978000164,0.02419999987,0.1520749927,1.041562438
10.55290067,-8.61300087,-5.256000042,-0.1950000077,-0.4621374905,0.1069749966,1.698400021
10.57290067,-8.61300087,-5.256000042,-0.1950000077,-0.4621374905,0.1069749966,1.698400021
10.59290067,-8.61300087,-5.256000042,-0.1950000077,-0.4621374905,0.1069749966,1.698400021
10.61290067,-6.946950436,-1.693950057,3.634050131,-0.4621374905,0.1069749966,1.698400021
10.63290067,-6.946950436,-1.693950057,3.634050131,-0.4621374905,0.1069749966,1.698400021
10.65290067,-4.897950172,-3.45600009,2.15895009,-0.1863124967,0.5165874958,3.310037374
10.67290067,-4.897950172,-3.45600009,2.15895009,-0.1863124967,0.5165874958,3.310037374
10.69290067,-4.897950172,-3.45600009,2.15895009,0.1731124967,0.9327999949,3.128537416
10.71290067,-4.897950172,-3.45600009,2.15895009,0.1731124967,0.9327999949,3.128537416
10.73290067,-4.897950172,-3.45600009,2.15895009,0.1731124967,0.9327999949,3.128537416
10.75290067,6.187950134,-22.18305016,9.454950333,2.146237373,1.509612441,1.865462542
10.77290067,6.187950134,-22.18305016,9.454950333,2.146237373,1.509612441,1.865462542
10.79290067,6.187950134,-22.18305016,9.454950333,2.047650099,3.09787488,-2.885437489
10.81290067,6.187950134,-22.18305016,9.454950333,2.047650099,3.09787488,-2.885437489
10.83290067,6.187950134,-22.18305016,9.454950333,2.047650099,3.09787488,-2.885437489
10.85290067,11.43495083,-6.595950127,-9.693000793,2.047650099,3.09787488,-2.885437489
10.87290067,11.43495083,-6.595950127,-9.693000793,2.047650099,3.09787488,-2.885437489
10.89290067,0.807000041,-12.05295086,-7.510050297,-1.403187513,0.8162000179,-4.435750008
10.91290067,0.807000041,-12.05295086,-7.510050297,-1.403187513,0.8162000179,-4.435750008
10.93290067,0.807000041,-12.05295086,-7.510050297,-1.403187513,0.8162000179,-4.435750008
10.95290067,0.807000041,-12.05295086,-7.510050297,-1.403187513,0.8162000179,-4.435750008
10.97290067,0.807000041,-12.05295086,-7.510050297,-1.403187513,0.8162000179,-4.435750008
10.99290067,-4.036950111,-21.79995155,7.387050152,-1.544124961,1.193087459,0.08662500232
11.01290067,-4.036950111,-21.79995155,7.387050152,-1.544124961,1.193087459,0.08662500232
11.03290067,-0.4170000255,-6.787050247,0.1290000081,-4.546575069,0.7565249801,1.294700027
11.05290067,-0.4170000255,-6.787050247,0.1290000081,-4.546575069,0.7565249801,1.294700027
11.07290067,-0.4170000255,-6.787050247,0.1290000081,-4.546575069,0.7565249801,1.294700027
11.09290067,-0.9150000215,-3.666000128,-0.2719500065,-4.546575069,0.7565249801,1.294700027
11.11290067,-0.9150000215,-3.666000128,-0.2719500065,-4.546575069,0.7565249801,1.294700027
11.13290067,-0.9150000215,-3.666000128,-0.2719500065,-0.5726875067,0.6467999816,2.399237394
11.15290067,-0.9150000215,-3.666000128,-0.2719500065,-0.5726875067,0.6467999816,2.399237394
11.17290067,-0.9150000215,-3.666000128,-0.2719500065,0.8256874681,0.7737125158,2.85422492
11.19290067,-0.9150000215,-3.666000128,-0.2719500065,0.8256874681,0.7737125158,2.85422492
11.21290067,-0.9150000215,-3.666000128,-0.2719500065,0.8256874681,0.7737125158,2.85422492
11.23290067,10.68795013,-12.01500034,0.913950026,-3.996299982,-2.789599895,-1.138912439
11.25290067,10.68795013,-12.01500034,0.913950026,-3.996299982,-2.789599895,-1.138912439
11.27290067,10.68795013,-12.01500034,0.913950026,-3.996299982,-2.789599895,-1.138912439
11.29290067,10.68795013,-12.01500034,0.913950026,-3.996299982,-2.789599895,-1.138912439
11.31290067,10.68795013,-12.01500034,0.913950026,-3.996299982,-2.789599895,-1.138912439
11.33290067,1.15200007,-17.12805176,-2.034000158,4.25356245,6.652112484,-2.025099993
11.35290067,1.15200007,-17.12805176,-2.034000158,4.25356245,6.652112484,-2.025099993
11.37290067,-5.77905035,-11.5360508,-1.918950081,1.411299944,3.124687433,-0.3503499925
11.39290067,-5.77905035,-11.5360508,-1.918950081,1.411299944,3.124687433,-0.3503499925
11.41290067,-5.77905035,-11.5360508,-1.918950081,1.411299944,3.124687433,-0.3503499925
11.43290067,-5.262000084,-9.736050606,2.121000051,1.411299944,3.124687433,-0.3503499925
11.45290067,-5.262000084,-9.736050606,2.121000051,1.411299944,3.124687433,-0.3503499925
11.47290067,-2.620050192,-6.385050297,5.950950146,0.3385249972,1.495862484,0.9799624681
11.49290067,-2.620050192,-6.385050297,5.950950146,0.3385249972,1.495862484,0.9799624681
11.51290067,-2.620050192,-6.385050297,5.950950146,0.3385249972,1.495862484,0.9799624681
11.53290067,-2.620050192,-6.385050297,5.950950146,0.3385249972,1.495862484,0.9799624681
11.55290067,-2.620050192,-6.385050297,5.950950146,0.3385249972,1.495862484,0.9799624681
11.57290067,1.707000136,-9.583050728,-0.3679500222,0.3643749952,1.739099979,1.675712466
11.59290067,1.707000136,-9.583050728,-0.3679500222,0.3643749952,1.739099979,1.675712466
11.61290067,1.707000136,-9.583050728,-0.3679500222,0.2417249978,-0.5922124982,0.3317874968
11.63290067,1.707000136,-9.583050728,-0.3679500222,0.2417249978,-0.5922124982,0.3317874968
11.65290067,1.707000136,-9.583050728,-0.3679500222,-0.1544124931,-2.514187574,-1.356850028
11.67290067,6.628050327,-14.75400066,1.009950042,-0.1544124931,-2.514187574,-1.356850028
11.69290067,6.628050327,-14.75400066,1.009950042,-0.1544124931,-2.514187574,-1.356850028
11.71290067,9.098999977,-12.22605038,1.719000101,-0.4169000089,-2.915962458,-2.379299879
11.73290067,9.098999977,-12.22605038,1.719000101,-0.4169000089,-2.915962458,-2.379299879
11.75290067,9.098999977,-12.22605038,1.719000101,-0.4169000089,-2.915962458,-2.379299879
11.77290067,9.098999977,-12.22605038,1.719000101,-0.4169000089,-2.915962458,-2.379299879
11.79290067,9.098999977,-12.22605038,1.719000101,-0.4169000089,-2.915962458,-2.379299879
11.81290067,1.458000064,-14.90700054,-2.704050064,-0.8280249834,-1.629099965,-2.031837463
11.83290067,1.458000064,-14.90700054,-2.704050064,-0.8280249834,-1.629099965,-2.031837463
11.85290067,-15.60300064,-39.07305145,0.2629500031,-0.8184000254,-0.4787749946,-0.2341624945
11.87290067,-15.60300064,-39.07305145,0.2629500031,-0.8184000254,-0.4787749946,-0.2341624945
11.89290067,-15.60300064,-39.07305145,0.2629500031,-0.8184000254,-0.4787749946,-0.2341624945
11.91290067,-7.981050491,-14.06400108,1.068000078,-0.8184000254,-0.4787749946,-0.2341624945
11.93290067,-7.981050491,-14.06400108,1.068000078,-0.8184000254,-0.4787749946,-0.2341624945
11.95290067,-7.981050491,-14.06400108,1.068000078,-0.8184000254,-0.4787749946,-0.2341624945
11.97290067,-7.981050491,-14.06400108,1.068000078,-0.8184000254,-0.4787749946,-0.2341624945
11.99290067,-7.981050491,-14.06400108,1.068000078,-0.1971749961,2.233274937,3.355412483
12.01290067,-7.981050491,-14.06400108,1.068000078,-0.1971749961,2.233274937,3.355412483
12.03290067,-7.981050491,-14.06400108,1.068000078,-0.1971749961,2.233274937,3.355412483
12.05290067,-1.854000092,1.732950091,3.787050247,-0.05513750017,3.490437508,3.3197999
12.07290067,-1.854000092,1.732950091,3.787050247,-0.05513750017,3.490437508,3.3197999
12.09290067,-1.854000092,1.732950091,3.787050247,-0.05513750017,3.490437508,3.3197999
12.11290067,-1.854000092,1.732950091,3.787050247,-0.05513750017,3.490437508,3.3197999
12.13290067,-1.854000092,1.732950091,3.787050247,-0.05513750017,3.490437508,3.3197999
12.15290067,10.87995052,-14.1409502,-8.659049988,-0.05513750017,3.490437508,3.3197999
12.17290067,10.87995052,-14.1409502,-8.659049988,-0.05513750017,3.490437508,3.3197999
12.19290067,-1.183050036,-19.61700058,16.75094986,-4.894999981,-6.299012661,-9.366912842
12.21290067,-1.183050036,-19.61700058,16.75094986,-4.894999981,-6.299012661,-9.366912842
12.23290067,-1.183050036,-19.61700058,16.75094986,-4.894999981,-6.299012661,-9.366912842
12.25290067,-12.36600018,-12.76200104,9.091050148,-4.894999981,-6.299012661,-9.366912842
12.27290067,-12.36600018,-12.76200104,9.091050148,-4.894999981,-6.299012661,-9.366912842
12.29290067,-11.65800095,-15.82605076,5.089050293,1.664712548,4.018024921,4.320112705
12.31290067,-11.65800095,-15.82605076,5.089050293,1.664712548,4.018024921,4.320112705
12.33290067,-11.65800095,-15.82605076,5.089050293,1.945762515,4.825287342,3.752512455
12.35290067,-11.65800095,-15.82605076,5.089050293,1.945762515,4.825287342,3.752512455
12.37290067,-11.65800095,-15.82605076,5.089050293,1.945762515,4.825287342,3.752512455
12.39290067,-1.048950076,-11.03895092,4.954950333,3.86993742,5.632549763,3.559462547
12.41290067,-1.048950076,-11.03895092,4.954950333,3.86993742,5.632549763,3.559462547
12.43290067,9.80700016,-14.67705059,-1.842000127,5.612887383,3.817549944,2.434849977
12.47290067,9.80700016,-14.67705059,-1.842000127,5.612887383,3.817549944,2.434849977
12.49290067,11.08995056,-9.507000923,1.297050118,5.612887383,3.817549944,2.434849977
12.51290067,11.08995056,-9.507000923,1.297050118,5.612887383,3.817549944,2.434849977
12.53290067,7.873050213,-5.524050236,-3.679950237,0.3291749954,-2.668600082,-2.56795001
12.55290067,7.873050213,-5.524050236,-3.679950237,0.3291749954,-2.668600082,-2.56795001
12.57290067,7.873050213,-5.524050236,-3.679950237,0.3291749954,-2.668600082,-2.56795001
12.59290067,7.873050213,-5.524050236,-3.679950237,0.3291749954,-2.668600082,-2.56795001
12.61290067,7.873050213,-5.524050236,-3.679950237,0.3291749954,-2.668600082,-2.56795001
12.63290067,8.371050835,-13.41300106,0.646050036,0.1254000068,-2.965462446,-4.238025188
12.65290067,8.371050835,-13.41300106,0.646050036,0.1254000068,-2.965462446,-4.238025188
12.67290067,8.371050835,-13.41300106,0.646050036,0.1989624947,-1.993749976,-2.776124954
12.69290067,8.371050835,-13.41300106,0.646050036,0.1989624947,-1.993749976,-2.776124954
12.71290067,8.371050835,-13.41300106,0.646050036,0.1989624947,-1.993749976,-2.776124954
12.75290067,-5.224050045,-19.09995079,11.427001,0.5674625039,-1.053799987,-0.3449875116
12.77290067,-6.469050407,-13.03005028,7.750950336,1.389299989,0.3020874858,1.781999946
12.79290067,-6.469050407,-13.03005028,7.750950336,1.389299989,0.3020874858,1.781999946
12.81290067,-6.469050407,-13.03005028,7.750950336,1.389299989,0.3020874858,1.781999946
12.83290067,-6.469050407,-13.03005028,7.750950336,1.389299989,0.3020874858,1.781999946
12.85290067,-6.469050407,-13.03005028,7.750950336,1.389299989,0.3020874858,1.781999946
12.87290067,-7.158000469,-9.199950218,-26.69805145,1.099449992,1.366062522,3.153424978
12.89290067,-7.158000469,-9.199950218,-26.69805145,1.099449992,1.366062522,3.153424978
12.91290067,-7.158000469,-9.199950218,-26.69805145,1.099449992,1.366062522,3.153424978
12.93290067,-7.158000469,-9.199950218,-26.69805145,1.099449992,1.366062522,3.153424978
12.95290067,-7.158000469,-9.199950218,-26.69805145,1.099449992,1.366062522,3.153424978
12.97290067,0.2520000041,-6.595950127,-0.5590500236,1.099449992,1.366062522,3.153424978
12.99290067,0.2520000041,-6.595950127,-0.5590500236,1.099449992,1.366062522,3.153424978
13.01290067,0.2520000041,-6.595950127,-0.5590500236,-4.135174751,-3.445887566,1.988937497
13.03290067,0.2520000041,-6.595950127,-0.5590500236,-4.135174751,-3.445887566,1.988937497
13.05290067,0.2520000041,-6.595950127,-0.5590500236,-5.143324852,-7.30138731,-0.3141874969
13.07290067,0.2520000041,-6.595950127,-0.5590500236,-5.143324852,-7.30138731,-0.3141874969
13.09290067,0.2520000041,-6.595950127,-0.5590500236,-5.143324852,-7.30138731,-0.3141874969
13.11290067,2.530950069,-6.826050282,0.1870500147,-3.497174978,-5.219362259,-2.49081254
13.13290067,2.530950069,-6.826050282,0.1870500147,-3.497174978,-5.219362259,-2.49081254
13.15290067,2.530950069,-6.826050282,0.1870500147,-3.497174978,-5.219362259,-2.49081254
13.17290067,2.530950069,-6.826050282,0.1870500147,-3.497174978,-5.219362259,-2.49081254
13.19290067,2.530950069,-6.826050282,0.1870500147,-3.497174978,-5.219362259,-2.49081254
13.21290067,7.299000263,-15.00195026,-5.863050461,-0.4134624898,-0.824450016,-2.841300011
13.23290067,7.299000263,-15.00195026,-5.863050461,-0.4134624898,-0.824450016,-2.841300011
13.25290067,2.836950064,-9.756000519,-3.183000088,-0.3746874928,-0.4875749946,-2.239325047
13.27290067,2.836950064,-9.756000519,-3.183000088,-0.3746874928,-0.4875749946,-2.239325047
13.29290067,2.836950064,-9.756000519,-3.183000088,-0.3746874928,-0.4875749946,-2.239325047
13.31290067,-5.128050327,-18.02805138,-3.834000111,-0.3746874928,-0.4875749946,-2.239325047
13.33290067,-5.128050327,-18.02805138,-3.834000111,-0.3746874928,-0.4875749946,-2.239325047
13.35290067,-5.128050327,-18.02805138,-3.834000111,0.5116375089,0.4285874963,0.6927250028
13.37290067,-5.128050327,-18.02805138,-3.834000111,0.5116375089,0.4285874963,0.6927250028
13.39290067,-5.128050327,-18.02805138,-3.834000111,1.236537457,1.667737484,0.9183624983
13.43290067,-5.128050327,-18.02805138,-3.834000111,1.236537457,1.667737484,0.9183624983
13.45290067,-0.9730500579,-9.37305069,5.529000282,1.656049967,2.252112389,1.148399949
13.47290067,-0.9730500579,-9.37305069,5.529000282,1.656049967,2.252112389,1.148399949
13.49290067,-0.9730500579,-9.37305069,5.529000282,1.656049967,2.252112389,1.148399949
13.51290067,-0.9730500579,-9.37305069,5.529000282,1.656049967,2.252112389,1.148399949
13.53290067,-0.9730500579,-9.37305069,5.529000282,1.656049967,2.252112389,1.148399949
13.55290067,0.1939500123,-8.2999506,-0.7309500575,1.656049967,2.252112389,1.148399949
13.57290067,0.1939500123,-8.2999506,-0.7309500575,1.656049967,2.252112389,1.148399949
13.59290067,1.075049996,-10.3879509,0.9720000625,0.01113750041,-0.6567000151,0.7147250175
13.61290067,1.075049996,-10.3879509,0.9720000625,0.01113750041,-0.6567000151,0.7147250175
13.63290067,1.075049996,-10.3879509,0.9720000625,0.01113750041,-0.6567000151,0.7147250175
13.65290067,1.075049996,-10.3879509,0.9720000625,0.01113750041,-0.6567000151,0.7147250175
13.67290067,1.075049996,-10.3879509,0.9720000625,0.01113750041,-0.6567000151,0.7147250175
13.69290067,0.8839500546,-16.22805023,-1.804050088,-1.527899981,-2.659250021,-0.2347124964
13.71290067,0.8839500546,-16.22805023,-1.804050088,-1.527899981,-2.659250021,-0.2347124964
13.73290067,0.8839500546,-16.22805023,-1.804050088,-1.638175011,-2.310962439,-0.7071624994
13.75290067,0.8839500546,-16.22805023,-1.804050088,-1.638175011,-2.310962439,-0.7071624994
13.77290067,0.8839500546,-16.22805023,-1.804050088,-1.638175011,-2.310962439,-0.7071624994
13.79290067,6.667050362,-12.78105068,1.336050034,-1.638175011,-2.310962439,-0.7071624994
13.81290067,6.667050362,-12.78105068,1.336050034,-1.638175011,-2.310962439,-0.7071624994
13.83290067,5.460000038,-12.97305107,5.931000233,-0.2171124965,-0.7955750227,-1.386962533
13.85290067,5.460000038,-12.97305107,5.931000233,-0.2171124965,-0.7955750227,-1.386962533
13.87290067,5.460000038,-12.97305107,5.931000233,-0.2171124965,-0.7955750227,-1.386962533
13.89290067,5.460000038,-12.97305107,5.931000233,-0.2171124965,-0.7955750227,-1.386962533
13.91290067,5.460000038,-12.97305107,5.931000233,-0.2171124965,-0.7955750227,-1.386962533
13.93290067,5.460000038,-12.97305107,5.931000233,-0.2171124965,-0.7955750227,-1.386962533
13.95290067,5.460000038,-12.97305107,5.931000233,-0.2171124965,-0.7955750227,-1.386962533
13.97290067,-0.7810500264,-3.609000206,-29.49300194,2.048475027,1.444574952,0.38637501
13.99290067,-0.7810500264,-3.609000206,-29.49300194,2.048475027,1.444574952,0.38637501
14.01290067,-0.7810500264,-3.609000206,-29.49300194,2.048475027,1.444574952,0.38637501
14.03290067,-3.499950171,-3.762000084,1.374000072,0.1544124931,0.4390375018,0.8320124745
14.05290067,-3.499950171,-3.762000084,1.374000072,0.1544124931,0.4390375018,0.8320124745
14.07290067,-6.085950375,-8.43405056,6.1039505,0.2997500002,0.6391000152,1.686987519
14.09290067,-6.085950375,-8.43405056,6.1039505,0.2997500002,0.6391000152,1.686987519
14.11290067,-6.085950375,-8.43405056,6.1039505,0.2997500002,0.6391000152,1.686987519
14.13290067,-1.450950027,-7.189950466,-1.669950128,0.2997500002,0.6391000152,1.686987519
14.15290067,-1.450950027,-7.189950466,-1.669950128,0.2997500002,0.6391000152,1.686987519
14.17290067,-1.450950027,-7.189950466,-1.669950128,-3.186287403,-4.653824806,1.378437519
14.19290067,-1.450950027,-7.189950466,-1.669950128,-3.186287403,-4.653824806,1.378437519
14.21290067,-1.450950027,-7.189950466,-1.669950128,-2.892862558,-3.461012363,-0.8327000141
14.23290067,-1.450950027,-7.189950466,-1.669950128,-2.892862558,-3.461012363,-0.8327000141
14.25290067,-1.450950027,-7.189950466,-1.669950128,-2.892862558,-3.461012363,-0.8327000141
14.27290067,-8.440950394,-11.32605076,2.638050079,2.047100067,1.127087474,-0.6302999854
14.29290067,-8.440950394,-11.32605076,2.638050079,2.047100067,1.127087474,-0.6302999854
14.31290067,-15.43005085,-17.66400146,-0.8080500364,-0.1453374922,-3.473937511,1.362074971
14.33290067,-15.43005085,-17.66400146,-0.8080500364,-0.1453374922,-3.473937511,1.362074971
14.35290067,-15.43005085,-17.66400146,-0.8080500364,-0.1453374922,-3.473937511,1.362074971
14.37290067,-6.181050301,-14.37105083,4.476000309,-0.1453374922,-3.473937511,1.362074971
14.39290067,-6.181050301,-14.37105083,4.476000309,-0.1453374922,-3.473937511,1.362074971
14.41290067,-2.505000114,-34.24695206,8.574000359,0.6234250069,-1.825037479,1.497787476
14.43290067,-2.505000114,-34.24695206,8.574000359,0.6234250069,-1.825037479,1.497787476
14.45290067,-2.505000114,-34.24695206,8.574000359,-0.6426749825,1.059849977,-0.5398250222
14.47290067,-2.505000114,-34.24695206,8.574000359,-0.6426749825,1.059849977,-0.5398250222
14.49290067,-2.505000114,-34.24695206,8.574000359,-0.6426749825,1.059849977,-0.5398250222
14.51290067,8.56305027,-4.642950058,-8.487000465,0.5655375123,2.340937376,-1.459287524
14.53290067,8.56305027,-4.642950058,-8.487000465,0.5655375123,2.340937376,-1.459287524
14.55290067,8.56305027,-4.642950058,-8.487000465,-0.2886124849,2.153387547,-2.712049961
14.57290067,8.56305027,-4.642950058,-8.487000465,-0.2886124849,2.153387547,-2.712049961
14.59290067,8.56305027,-4.642950058,-8.487000465,-0.2886124849,2.153387547,-2.712049961
14.61290067,7.183950424,2.689950228,-0.1570500135,-0.2886124849,2.153387547,-2.712049961
14.63290067,7.183950424,2.689950228,-0.1570500135,-0.2886124849,2.153387547,-2.712049961
14.65290067,4.636950016,-3.168000221,3.136050224,-1.093400002,0.4229499996,-4.63457489
14.67290067,4.636950016,-3.168000221,3.136050224,-1.093400002,0.4229499996,-4.63457489
14.69290067,4.636950016,-3.168000221,3.136050224,-1.093400002,0.4229499996,-4.63457489
14.71290067,4.636950016,-3.168000221,3.136050224,-1.093400002,0.4229499996,-4.63457489
14.73290067,4.636950016,-3.168000221,3.136050224,-1.093400002,0.4229499996,-4.63457489
14.75290067,-2.77305007,-32.77305222,13.78305054,1.083775043,1.005949974,-0.579837501
14.77290067,-2.77305007,-32.77305222,13.78305054,1.083775043,1.005949974,-0.579837501
14.79290067,-1.968000054,-5.658000469,-30.18300056,1.624837518,2.22694993,1.743637443
14.81290067,-1.968000054,-5.658000469,-30.18300056,1.624837518,2.22694993,1.743637443
14.83290067,-1.968000054,-5.658000469,-30.18300056,1.624837518,2.22694993,1.743637443
14.85290067,-2.083050013,-2.938950062,1.068000078,1.624837518,2.22694993,1.743637443
14.87290067,-2.083050013,-2.938950062,1.068000078,1.624837518,2.22694993,1.743637443
14.89290067,-2.083050013,-2.938950062,1.068000078,0.7189875245,0.5878124833,2.487237453
14.91290067,-2.083050013,-2.938950062,1.068000078,0.7189875245,0.5878124833,2.487237453
14.93290067,-2.083050013,-2.938950062,1.068000078,0.7189875245,0.5878124833,2.487237453
14.95290067,0.07905000448,1.924050093,3.768000126,0.7189875245,0.5878124833,2.487237453
14.97290067,0.07905000448,1.924050093,3.768000126,0.7189875245,0.5878124833,2.487237453
14.99290067,-2.734050035,-0.889950037,2.140050173,2.72428751,5.658675194,-1.118149996
15.01290067,-2.734050035,-0.889950037,2.140050173,2.72428751,5.658675194,-1.118149996
15.03290067,-2.734050035,-0.889950037,2.140050173,2.72428751,5.658675194,-1.118149996
15.05290067,-2.734050035,-0.889950037,2.140050173,2.72428751,5.658675194,-1.118149996
15.07290067,-2.734050035,-0.889950037,2.140050173,2.72428751,5.658675194,-1.118149996
15.09290067,-13.61100101,-28.61700058,1.489050031,8.086649895,17.33723831,-12.86766243
15.11290067,-13.61100101,-28.61700058,1.489050031,8.086649895,17.33723831,-12.86766243
15.13290067,-7.099950314,-27.73695183,7.636050224,7.079599857,15.50106239,-11.82678699
15.15290067,-7.099950314,-27.73695183,7.636050224,7.079599857,15.50106239,-11.82678699
15.17290067,-7.099950314,-27.73695183,7.636050224,7.079599857,15.50106239,-11.82678699
15.19290067,5.344950199,-18.75600052,-0.2530499995,7.079599857,15.50106239,-11.82678699
15.21290067,5.344950199,-18.75600052,-0.2530499995,7.079599857,15.50106239,-11.82678699
15.23290067,5.344950199,-18.75600052,-0.2530499995,2.704900026,9.661299706,-5.217575073
15.25290067,5.344950199,-18.75600052,-0.2530499995,2.704900026,9.661299706,-5.217575073
15.27290067,5.344950199,-18.75600052,-0.2530499995,2.704900026,9.661299706,-5.217575073
15.29290067,5.344950199,-18.75600052,-0.2530499995,2.704900026,9.661299706,-5.217575073
15.31290067,5.344950199,-18.75600052,-0.2530499995,2.704900026,9.661299706,-5.217575073
15.33290067,7.528050423,-6.51900053,-6.457050323,-1.919362545,5.019575119,-6.16989994
15.35290067,7.528050423,-6.51900053,-6.457050323,-1.919362545,5.019575119,-6.16989994
15.37290067,1.55400002,-39.07305145,-7.893000603,-1.783924937,2.345750093,-6.844062328
15.39290067,1.55400002,-39.07305145,-7.893000603,-1.783924937,2.345750093,-6.844062328
15.41290067,1.55400002,-39.07305145,-7.893000603,-1.783924937,2.345750093,-6.844062328
15.43290067,0.5970000029,-29.8240509,22.64895058,-1.783924937,2.345750093,-6.844062328
15.45290067,0.5970000029,-29.8240509,22.64895058,-1.783924937,2.345750093,-6.844062328
15.47290067,0.5970000029,-29.8240509,22.64895058,1.168750048,2.674375057,-0.6175125241
15.49290067,0.5970000029,-29.8240509,22.64895058,1.168750048,2.674375057,-0.6175125241
15.51290067,0.5970000029,-29.8240509,22.64895058,0.240899995,1.455437541,2.621850014
15.53290067,0.5970000029,-29.8240509,22.64895058,0.240899995,1.455437541,2.621850014
15.55290067,0.5970000029,-29.8240509,22.64895058,0.240899995,1.455437541,2.621850014
15.57290067,-5.089950085,7.4010005,4.43805027,2.723325014,2.688537598,3.261637449
15.59290067,-5.089950085,7.4010005,4.43805027,2.723325014,2.688537598,3.261637449
15.61290067,-5.089950085,7.4010005,4.43805027,2.723325014,2.688537598,3.261637449
15.63290067,-5.089950085,7.4010005,4.43805027,2.723325014,2.688537598,3.261637449
15.65290067,-5.089950085,7.4010005,4.43805027,2.723325014,2.688537598,3.261637449
15.67290067,-12.90300083,-10.94295025,1.258950114,2.723325014,2.688537598,3.261637449
15.69290067,-12.90300083,-10.94295025,1.258950114,2.723325014,2.688537598,3.261637449
15.71290067,-17.38395119,-38.53695297,4.897050381,10.57182503,14.23358727,-10.06293774
15.73290067,-17.38395119,-38.53695297,4.897050381,10.57182503,14.23358727,-10.06293774
15.75290067,-17.38395119,-38.53695297,4.897050381,10.57182503,14.23358727,-10.06293774
15.77290067,-17.38395119,-38.53695297,4.897050381,10.57182503,14.23358727,-10.06293774
15.79290067,-17.38395119,-38.53695297,4.897050381,10.57182503,14.23358727,-10.06293774
15.81290067,6.169050217,-13.79595089,9.052950859,6.433899879,16.10303688,-8.969949722
15.83290067,6.169050217,-13.79595089,9.052950859,6.433899879,16.10303688,-8.969949722
15.85290067,6.169050217,-13.79595089,9.052950859,5.483500004,12.80798721,-7.287912369
15.87290067,6.169050217,-13.79595089,9.052950859,5.483500004,12.80798721,-7.287912369
15.89290067,6.169050217,-13.79595089,9.052950859,5.483500004,12.80798721,-7.287912369
15.91290067,9.903000832,4.834950447,-9.061050415,2.359637499,9.513899803,-5.275462627
15.93290067,9.903000832,4.834950447,-9.061050415,2.359637499,9.513899803,-5.275462627
15.95290067,9.903000832,4.834950447,-9.061050415,2.359637499,9.513899803,-5.275462627
15.97290067,9.903000832,4.834950447,-9.061050415,2.359637499,9.513899803,-5.275462627
15.99290067,9.903000832,4.834950447,-9.061050415,2.359637499,9.513899803,-5.275462627
16.01290067,3.430950165,-38.68995285,-8.793000221,2.359637499,9.513899803,-5.275462627
16.03290067,3.430950165,-38.68995285,-8.793000221,2.359637499,9.513899803,-5.275462627
16.05290067,-35.38395309,-24.61500168,31.20795059,0.8061624765,0.9245499969,-3.907474995
16.07290067,-35.38395309,-24.61500168,31.20795059,0.8061624765,0.9245499969,-3.907474995
16.09290067,-7.426050186,-15.2320509,-5.059050083,1.510025024,-4.154287338,0.6925874949
16.11290067,-7.426050186,-15.2320509,-5.059050083,1.510025024,-4.154287338,0.6925874949
16.13290067,-7.426050186,-15.2320509,-5.059050083,1.510025024,-4.154287338,0.6925874949
16.15290067,4.216050148,-0.9090000391,-8.620950699,0.3642374873,-5.108262539,0.6396499872
16.17290067,4.216050148,-0.9090000391,-8.620950699,0.3642374873,-5.108262539,0.6396499872
16.19290067,4.216050148,-0.9090000391,-8.620950699,1.030424953,-4.242424965,-0.1744875014
16.21290067,4.216050148,-0.9090000391,-8.620950699,1.030424953,-4.242424965,-0.1744875014
16.23290067,4.216050148,-0.9090000391,-8.620950699,0.8271999955,-3.667537451,-0.1820500046
16.25290067,2.185950041,-3.207000256,-1.822950125,0.8271999955,-3.667537451,-0.1820500046
16.27290067,2.185950041,-3.207000256,-1.822950125,0.8271999955,-3.667537451,-0.1820500046
16.29290067,3.679950237,-20.40300179,-1.324950099,-0.7832000256,-2.604112387,0.7869125009
16.31290067,3.679950237,-20.40300179,-1.324950099,-0.7832000256,-2.604112387,0.7869125009
16.33290067,3.679950237,-20.40300179,-1.324950099,-0.7832000256,-2.604112387,0.7869125009
16.35290067,3.679950237,-20.40300179,-1.324950099,-0.7832000256,-2.604112387,0.7869125009
16.37290067,3.679950237,-20.40300179,-1.324950099,-0.7832000256,-2.604112387,0.7869125009
16.39290067,3.852000237,-19.99995041,-3.277950048,1.371012449,2.181437492,-1.67007494
16.41290067,3.852000237,-19.99995041,-3.277950048,1.371012449,2.181437492,-1.67007494
16.43290067,3.852000237,-19.99995041,-3.277950048,1.371012449,2.181437492,-1.67007494
16.45290067,3.852000237,-19.99995041,-3.277950048,1.371012449,2.181437492,-1.67007494
16.47290067,3.852000237,-19.99995041,-3.277950048,1.371012449,2.181437492,-1.67007494
16.49290067,-0.2830500007,-10.06200027,-2.263050079,1.371012449,2.181437492,-1.67007494
16.51290067,-0.2830500007,-10.06200027,-2.263050079,1.371012449,2.181437492,-1.67007494
16.53290067,-0.2830500007,-10.06200027,-2.263050079,0.7240750194,0.01017499994,0.7117000222
16.55290067,-0.2830500007,-10.06200027,-2.263050079,0.7240750194,0.01017499994,0.7117000222
16.57290067,-0.2830500007,-10.06200027,-2.263050079,-1.331412435,-0.4707999825,1.290987492
16.59290067,-0.2830500007,-10.06200027,-2.263050079,-1.331412435,-0.4707999825,1.290987492
16.61290067,-0.2830500007,-10.06200027,-2.263050079,-1.331412435,-0.4707999825,1.290987492
16.63290067,-5.760000229,0.7180500627,-3.546000242,-3.459362507,-1.883749962,2.804450035
16.65290067,-5.760000229,0.7180500627,-3.546000242,-3.459362507,-1.883749962,2.804450035
16.67290067,-5.760000229,0.7180500627,-3.546000242,-3.459362507,-1.883749962,2.804450035
16.69290067,-5.760000229,0.7180500627,-3.546000242,-3.459362507,-1.883749962,2.804450035
16.71290067,-5.760000229,0.7180500627,-3.546000242,-3.459362507,-1.883749962,2.804450035
16.73290067,4.101000309,-39.07305145,-6.361050129,-1.385587454,-1.859962463,-1.604212523
16.75290067,4.101000309,-39.07305145,-6.361050129,-1.385587454,-1.859962463,-1.604212523
16.77290067,4.101000309,-39.07305145,-6.361050129,-1.385587454,-1.859962463,-1.604212523
16.79290067,4.101000309,-39.07305145,-6.361050129,-1.385587454,-1.859962463,-1.604212523
16.81290067,4.101000309,-39.07305145,-6.361050129,-1.385587454,-1.859962463,-1.604212523
16.83290067,7.318050385,-1.464000106,-4.504050255,-1.385587454,-1.859962463,-1.604212523
16.85290067,7.318050385,-1.464000106,-4.504050255,-1.385587454,-1.859962463,-1.604212523
16.87290067,7.528050423,7.687950134,-4.714050293,1.490912437,-1.16187501,-3.485625029
16.89290067,7.528050423,7.687950134,-4.714050293,1.490912437,-1.16187501,-3.485625029
16.91290067,7.528050423,7.687950134,-4.714050293,1.490912437,-1.16187501,-3.485625029
16.93290067,7.528050423,7.687950134,-4.714050293,1.490912437,-1.16187501,-3.485625029
16.95290067,7.528050423,7.687950134,-4.714050293,1.490912437,-1.16187501,-3.485625029
16.97290067,6.073050499,-16.22805023,1.719000101,7.870224953,-20.28619957,-3.459912539
16.99290067,6.073050499,-16.22805023,1.719000101,7.870224953,-20.28619957,-3.459912539
17.01290067,2.530950069,-39.07305145,9.148050308,5.912912369,-13.30037498,-1.749687433
17.03290067,2.530950069,-39.07305145,9.148050308,5.912912369,-13.30037498,-1.749687433
17.05290067,2.530950069,-39.07305145,9.148050308,5.912912369,-13.30037498,-1.749687433
17.07290067,1.438950062,-15.2130003,-1.630950093,5.912912369,-13.30037498,-1.749687433
17.09290067,1.438950062,-15.2130003,-1.630950093,5.912912369,-13.30037498,-1.749687433
17.11290067,-0.7620000243,-19.33005142,-3.277950048,-0.1773750037,0.4547125101,0.9858750105
17.13290067,-0.7620000243,-19.33005142,-3.277950048,-0.1773750037,0.4547125101,0.9858750105
17.15290067,-2.944950104,-22.69995117,-4.177950382,-1.539999962,5.119400024,1.18621254
17.17290067,-2.944950104,-22.69995117,-4.177950382,-1.539999962,5.119400024,1.18621254
17.19290067,-2.944950104,-22.69995117,-4.177950382,-1.539999962,5.119400024,1.18621254
17.21290067,-2.944950104,-22.69995117,-4.177950382,-1.566537499,7.159625053,1.14083755
17.23290067,-2.944950104,-22.69995117,-4.177950382,-1.566537499,7.159625053,1.14083755
17.25290067,-2.944950104,-22.69995117,-4.177950382,-2.55516243,7.399974823,2.136337519
17.27290067,-2.944950104,-22.69995117,-4.177950382,-2.55516243,7.399974823,2.136337519
17.29290067,-2.944950104,-22.69995117,-4.177950382,-2.735562563,4.983550072,3.571424961
17.31290067,-9.991950035,4.43295002,-0.8080500364,-2.735562563,4.983550072,3.571424961
17.33290067,-9.991950035,4.43295002,-0.8080500364,-2.735562563,4.983550072,3.571424961
17.35290067,0.405000031,-1.062000036,6.142050266,-1.728374958,1.983162522,3.578024864
17.37290067,0.405000031,-1.062000036,6.142050266,-1.728374958,1.983162522,3.578024864
17.39290067,0.405000031,-1.062000036,6.142050266,-1.728374958,1.983162522,3.578024864
17.41290067,0.405000031,-1.062000036,6.142050266,-1.728374958,1.983162522,3.578024864
17.43290067,0.405000031,-1.062000036,6.142050266,-1.728374958,1.983162522,3.578024864
17.45290067,2.98995018,-35.72205353,7.827000141,0.7642250061,0.8185374737,-1.421200037
17.47290067,2.98995018,-35.72205353,7.827000141,0.7642250061,0.8185374737,-1.421200037
17.49290067,1.803000093,-5.350950241,1.776000142,5.274087429,-1.871787548,-1.560487509
17.51290067,1.803000093,-5.350950241,1.776000142,5.274087429,-1.871787548,-1.560487509
17.53290067,1.803000093,-5.350950241,1.776000142,5.274087429,-1.871787548,-1.560487509
17.55290067,3.92805028,3.130950212,-4.465950012,5.274087429,-1.871787548,-1.560487509
17.57290067,3.92805028,3.130950212,-4.465950012,5.274087429,-1.871787548,-1.560487509
17.59290067,3.92805028,3.130950212,-4.465950012,1.279850006,-3.238812447,-2.408037424
17.61290067,3.92805028,3.130950212,-4.465950012,1.279850006,-3.238812447,-2.408037424
17.63290067,3.92805028,3.130950212,-4.465950012,-0.3753750026,-3.149574995,-1.594449997
17.65290067,3.92805028,3.130950212,-4.465950012,-0.3753750026,-3.149574995,-1.594449997
17.67290067,3.92805028,3.130950212,-4.465950012,-0.3753750026,-3.149574995,-1.594449997
17.69290067,0.673050046,-22.0489502,-3.355050087,1.91565001,-4.803150177,-0.1794375032
17.71290067,0.673050046,-22.0489502,-3.355050087,1.91565001,-4.803150177,-0.1794375032
17.73290067,0.673050046,-22.0489502,-3.355050087,1.91565001,-4.803150177,-0.1794375032
17.75290067,0.673050046,-22.0489502,-3.355050087,1.91565001,-4.803150177,-0.1794375032
17.77290067,0.673050046,-22.0489502,-3.355050087,1.91565001,-4.803150177,-0.1794375032
17.79290067,3.316050053,-12.32205105,4.30395031,0.9648374915,-3.004649878,0.2429624945
17.81290067,3.316050053,-12.32205105,4.30395031,0.9648374915,-3.004649878,0.2429624945
17.83290067,2.416050196,-5.06400013,-1.612050056,1.275312543,-2.233137369,0.7881500125
17.85290067,2.416050196,-5.06400013,-1.612050056,1.275312543,-2.233137369,0.7881500125
17.87290067,2.416050196,-5.06400013,-1.612050056,1.275312543,-2.233137369,0.7881500125
17.89290067,3.852000237,-7.764000416,-3.028950214,1.275312543,-2.233137369,0.7881500125
17.91290067,3.852000237,-7.764000416,-3.028950214,1.275312543,-2.233137369,0.7881500125
17.93290067,3.852000237,-7.764000416,-3.028950214,1.275312543,-2.233137369,0.7881500125
17.95290067,3.852000237,-7.764000416,-3.028950214,1.275312543,-2.233137369,0.7881500125
17.97290067,3.852000237,-7.764000416,-3.028950214,1.247674942,-0.9053000212,0.03451250121
17.99290067,3.852000237,-7.764000416,-3.028950214,1.247674942,-0.9053000212,0.03451250121
18.01290067,3.852000237,-7.764000416,-3.028950214,1.247674942,-0.9053000212,0.03451250121
18.03290067,-0.6469500065,-9.928050041,-0.4249500334,-2.415874958,1.439625025,-0.2996124923
18.05290067,-0.6469500065,-9.928050041,-0.4249500334,-2.415874958,1.439625025,-0.2996124923
18.07290067,-1.048950076,-11.44095039,-3.546000242,-1.754912496,2.016575098,0.4247374833
18.09290067,-1.048950076,-11.44095039,-3.546000242,-1.754912496,2.016575098,0.4247374833
18.11290067,-1.048950076,-11.44095039,-3.546000242,-1.754912496,2.016575098,0.4247374833
18.13290067,-2.638950109,-12.550951,-0.5970000029,-1.754912496,2.016575098,0.4247374833
18.15290067,-2.638950109,-12.550951,-0.5970000029,-1.754912496,2.016575098,0.4247374833
18.17290067,-4.860000134,-11.91900063,1.431000113,0.2151875049,1.479362488,1.621812463
18.19290067,-4.860000134,-11.91900063,1.431000113,0.2151875049,1.479362488,1.621812463
18.21290067,-4.860000134,-11.91900063,1.431000113,1.001412511,0.8265125155,1.255787492
18.23290067,-4.860000134,-11.91900063,1.431000113,1.001412511,0.8265125155,1.255787492
18.25290067,-4.860000134,-11.91900063,1.431000113,1.001412511,0.8265125155,1.255787492
18.27290067,9.80700016,-22.06800079,9.378000259,0.8553875089,0.2059749961,-0.386787504
18.29290067,9.80700016,-22.06800079,9.378000259,0.8553875089,0.2059749961,-0.386787504
18.31290067,9.80700016,-22.06800079,9.378000259,1.626075029,-1.022724986,-1.328387499
18.33290067,9.80700016,-22.06800079,9.378000259,1.626075029,-1.022724986,-1.328387499
18.35290067,9.80700016,-22.06800079,9.378000259,1.626075029,-1.022724986,-1.328387499
18.37290067,0.1750500053,-5.083050251,1.929000139,1.626075029,-1.022724986,-1.328387499
18.39290067,0.1750500053,-5.083050251,1.929000139,1.626075029,-1.022724986,-1.328387499
18.41290067,3.640950203,-2.709000111,-0.4440000355,1.715999961,-2.376137495,-0.6895624995
18.43290067,3.640950203,-2.709000111,-0.4440000355,1.715999961,-2.376137495,-0.6895624995
18.45290067,3.640950203,-2.709000111,-0.4440000355,1.715999961,-2.376137495,-0.6895624995
18.47290067,3.640950203,-2.709000111,-0.4440000355,1.715999961,-2.376137495,-0.6895624995
18.49290067,3.640950203,-2.709000111,-0.4440000355,1.715999961,-2.376137495,-0.6895624995
18.51290067,2.760000229,-5.562000275,2.542050123,2.889287472,-6.278800011,-1.035512447
18.53290067,2.760000229,-5.562000275,2.542050123,2.889287472,-6.278800011,-1.035512447
18.55290067,-1.489950061,-11.84295082,-7.089000225,0.7037249804,-2.647562504,-0.02873750031
18.57290067,-1.489950061,-11.84295082,-7.089000225,0.7037249804,-2.647562504,-0.02873750031
18.59290067,-1.489950061,-11.84295082,-7.089000225,0.7037249804,-2.647562504,-0.02873750031
18.61290067,-2.83005023,-21.14895058,-8.50605011,0.7037249804,-2.647562504,-0.02873750031
18.63290067,-2.83005023,-21.14895058,-8.50605011,0.7037249804,-2.647562504,-0.02873750031
18.65290067,-2.83005023,-21.14895058,-8.50605011,-5.068250179,10.13196278,1.869724989
18.67290067,-2.83005023,-21.14895058,-8.50605011,-5.068250179,10.13196278,1.869724989
18.69290067,-2.83005023,-21.14895058,-8.50605011,-5.068250179,10.13196278,1.869724989
18.71290067,-7.005000114,-8.338950157,-2.244000196,-5.068250179,10.13196278,1.869724989
18.73290067,-7.005000114,-8.338950157,-2.244000196,-5.068250179,10.13196278,1.869724989
18.75290067,4.809000015,-7.975050449,7.903950214,-0.7661499977,3.34881258,3.162912369
18.77290067,4.809000015,-7.975050449,7.903950214,-0.7661499977,3.34881258,3.162912369
18.79290067,4.809000015,-7.975050449,7.903950214,-0.7661499977,3.34881258,3.162912369
18.81290067,4.809000015,-7.975050449,7.903950214,-0.7661499977,3.34881258,3.162912369
18.83290067,4.809000015,-7.975050449,7.903950214,-0.7661499977,3.34881258,3.162912369
18.85290067,5.230950356,-6.615000248,-2.569950104,0.6291999817,1.519374967,-0.6934124827
18.87290067,5.230950356,-6.615000248,-2.569950104,0.6291999817,1.519374967,-0.6934124827
18.89290067,5.30700016,-8.970000267,0.2250000089,0.983812511,1.349149942,-2.036512375
18.91290067,5.30700016,-8.970000267,0.2250000089,0.983812511,1.349149942,-2.036512375
18.93290067,5.30700016,-8.970000267,0.2250000089,0.983812511,1.349149942,-2.036512375
18.95290067,5.30700016,-8.970000267,0.2250000089,0.983812511,1.349149942,-2.036512375
18.97290067,5.30700016,-8.970000267,0.2250000089,0.983812511,1.349149942,-2.036512375
18.99290067,4.350000381,-9.105000496,-2.128950119,-2.380125046,6.451637268,-2.946487427
19.01290067,4.350000381,-9.105000496,-2.128950119,-2.380125046,6.451637268,-2.946487427
19.03290067,4.350000381,-9.105000496,-2.128950119,-2.345612526,3.976224899,-0.803412497
19.05290067,4.350000381,-9.105000496,-2.128950119,-2.345612526,3.976224899,-0.803412497
19.07290067,4.350000381,-9.105000496,-2.128950119,-2.345612526,3.976224899,-0.803412497
19.09290067,-2.275050163,-9.526050568,-3.393000126,-1.823662519,1.683137536,0.8577250242
19.11290067,-2.275050163,-9.526050568,-3.393000126,-1.823662519,1.683137536,0.8577250242
19.13290067,-2.275050163,-9.526050568,-3.393000126,-1.823662519,1.683137536,0.8577250242
19.15290067,-2.275050163,-9.526050568,-3.393000126,-1.823662519,1.683137536,0.8577250242
19.17290067,-2.275050163,-9.526050568,-3.393000126,-1.823662519,1.683137536,0.8577250242
19.19290067,-0.5710500479,-7.342950344,-2.320950031,-1.823662519,1.683137536,0.8577250242
19.21290067,-0.5710500479,-7.342950344,-2.320950031,-1.823662519,1.683137536,0.8577250242
19.23290067,-1.758000135,-10.57905006,0.1290000081,-0.9216625094,0.8051999807,1.722599983
19.25290067,-1.758000135,-10.57905006,0.1290000081,-0.9216625094,0.8051999807,1.722599983
19.27290067,-1.758000135,-10.57905006,0.1290000081,-0.9216625094,0.8051999807,1.722599983
19.29290067,-1.758000135,-10.57905006,0.1290000081,-0.9216625094,0.8051999807,1.722599983
19.31290067,-1.758000135,-10.57905006,0.1290000081,-0.9216625094,0.8051999807,1.722599983
19.33290067,-0.7429500222,-11.97705078,5.22300005,1.132862449,1.207800031,1.115124941
19.35290067,-0.7429500222,-11.97705078,5.22300005,1.132862449,1.207800031,1.115124941
19.37290067,-0.7429500222,-11.97705078,5.22300005,3.048650026,1.832049966,0.09638749808
19.39290067,-0.7429500222,-11.97705078,5.22300005,3.048650026,1.832049966,0.09638749808
19.41290067,-0.7429500222,-11.97705078,5.22300005,3.048650026,1.832049966,0.09638749808
19.43290067,1.362000108,-10.65600014,-0.8460000157,3.048650026,1.832049966,0.09638749808
19.45290067,1.362000108,-10.65600014,-0.8460000157,3.048650026,1.832049966,0.09638749808
19.47290067,1.362000108,-10.65600014,-0.8460000157,1.303499937,3.630962372,-0.9395374656
19.49290067,1.362000108,-10.65600014,-0.8460000157,1.303499937,3.630962372,-0.9395374656
19.51290067,1.362000108,-10.65600014,-0.8460000157,1.303499937,3.630962372,-0.9395374656
19.53290067,0.2710500062,-6.328050137,1.35495007,1.303499937,3.630962372,-0.9395374656
19.55290067,0.2710500062,-6.328050137,1.35495007,1.303499937,3.630962372,-0.9395374656
19.57290067,0.7879500389,-6.901950359,0.09105000645,0.6150375009,3.554237366,-1.369912505
19.59290067,0.7879500389,-6.901950359,0.09105000645,0.6150375009,3.554237366,-1.369912505
19.61290067,-0.4750500321,-6.46200037,-3.604050159,-1.850612521,1.014612436,-0.5377625227
19.63290067,-0.4750500321,-6.46200037,-3.604050159,-1.850612521,1.014612436,-0.5377625227
19.65290067,-0.4750500321,-6.46200037,-3.604050159,-1.850612521,1.014612436,-0.5377625227
19.67290067,-5.98995018,-8.701950073,1.450950027,-1.903962493,-0.3217499852,1.669800043
19.69290067,-5.98995018,-8.701950073,1.450950027,-1.903962493,-0.3217499852,1.669800043
19.71290067,-6.813000202,-11.76600075,0.9720000625,-0.7008374929,-0.4006749988,2.155725002
19.73290067,-6.813000202,-11.76600075,0.9720000625,-0.7008374929,-0.4006749988,2.155725002
19.75290067,-6.813000202,-11.76600075,0.9720000625,-0.7008374929,-0.4006749988,2.155725002
19.77290067,-8.805000305,-14.29395103,5.605950356,-0.7008374929,-0.4006749988,2.155725002
19.79290067,-8.805000305,-14.29395103,5.605950356,-0.7008374929,-0.4006749988,2.155725002
19.81290067,-4.840950012,-9.717000008,0.3019500077,0.1211374998,-0.8817874789,2.104850054
19.83290067,-4.840950012,-9.717000008,0.3019500077,0.1211374998,-0.8817874789,2.104850054
19.85290067,-4.840950012,-9.717000008,0.3019500077,0.06847500056,-0.8362749815,1.501637459
19.87290067,-4.840950012,-9.717000008,0.3019500077,0.06847500056,-0.8362749815,1.501637459
19.89290067,-4.840950012,-9.717000008,0.3019500077,0.06847500056,-0.8362749815,1.501637459
19.91290067,-4.840950012,-9.717000008,0.3019500077,0.06847500056,-0.8362749815,1.501637459
19.93290067,-4.840950012,-9.717000008,0.3019500077,0.06847500056,-0.8362749815,1.501637459
19.95290067,5.671050072,-7.150950432,-1.324950099,0.2754124999,0.8931999803,-1.689737439
19.97290067,5.671050072,-7.150950432,-1.324950099,0.2754124999,0.8931999803,-1.689737439
19.99290067,5.671050072,-7.150950432,-1.324950099,0.2754124999,0.8931999803,-1.689737439
20.01290067,-0.5899500251,-9.29595089,2.96295023,0.2754124999,0.8931999803,-1.689737439
20.03290067,-0.5899500251,-9.29595089,2.96295023,0.2754124999,0.8931999803,-1.689737439
20.05290067,-0.0150000006,-8.797950745,0.9340500236,-0.1361249983,0.8116624951,-2.800462484
20.07290067,-0.0150000006,-8.797950745,0.9340500236,-0.1361249983,0.8116624951,-2.800462484
20.09290067,-2.179050207,-8.319000244,-1.267950058,-0.1328250021,0.5585250258,-2.137162447
20.11290067,-2.179050207,-8.319000244,-1.267950058,-0.1328250021,0.5585250258,-2.137162447
20.13290067,-2.179050207,-8.319000244,-1.267950058,-0.1328250021,0.5585250258,-2.137162447
20.15290067,-1.393950105,-10.3879509,-2.85705018,-0.6069250107,-0.2868250012,-0.2176624984
20.17290067,-1.393950105,-10.3879509,-2.85705018,-0.6069250107,-0.2868250012,-0.2176624984
20.19290067,-1.393950105,-10.3879509,-2.85705018,-0.6505125165,-0.6015625,1.106050014
20.21290067,-1.393950105,-10.3879509,-2.85705018,-0.6505125165,-0.6015625,1.106050014
20.23290067,-1.393950105,-10.3879509,-2.85705018,-0.6505125165,-0.6015625,1.106050014
20.25290067,-0.5130000114,-14.9640007,0.378000021,-0.6505125165,-0.6015625,1.106050014
20.27290067,-0.5130000114,-14.9640007,0.378000021,-0.6505125165,-0.6015625,1.106050014
20.29290067,0.2899500132,-19.69395065,3.09705019,-0.7947499752,0.1815000027,0.5663625002
20.31290067,0.2899500132,-19.69395065,3.09705019,-0.7947499752,0.1815000027,0.5663625002
20.33290067,0.2899500132,-19.69395065,3.09705019,-0.7947499752,0.1815000027,0.5663625002
20.35290067,0.2899500132,-19.69395065,3.09705019,-0.7947499752,0.1815000027,0.5663625002
20.37290067,0.2899500132,-19.69395065,3.09705019,-0.7947499752,0.1815000027,0.5663625002
20.39290067,-9.054000854,-8.185050011,13.7629509,0.7739874721,1.365375042,0.498575002
20.41290067,-9.054000854,-8.185050011,13.7629509,0.7739874721,1.365375042,0.498575002
20.43290067,1.132950068,-7.86000061,-4.351050377,3.178587437,7.134049892,-0.2055625021
20.45290067,1.132950068,-7.86000061,-4.351050377,3.178587437,7.134049892,-0.2055625021
20.47290067,1.132950068,-7.86000061,-4.351050377,3.178587437,7.134049892,-0.2055625021
20.49290067,7.126050472,-22.77705193,-6.265950203,1.195837498,3.76970005,-0.3913249969
20.51290067,7.126050472,-22.77705193,-6.265950203,1.195837498,3.76970005,-0.3913249969
20.53290067,7.126050472,-22.77705193,-6.265950203,-0.352824986,1.264587522,-1.011999965
20.55290067,7.126050472,-22.77705193,-6.265950203,-0.352824986,1.264587522,-1.011999965
20.57290067,7.126050472,-22.77705193,-6.265950203,-0.352824986,1.264587522,-1.011999965
20.59290067,-6.277050495,-3.475050211,23.50995064,-0.352824986,1.264587522,-1.011999965
20.61290067,-6.277050495,-3.475050211,23.50995064,-0.352824986,1.264587522,-1.011999965
20.63290067,-0.0540000014,-3.934050083,-0.5209500194,1.696612477,4.07962513,-1.433987498
20.65290067,-0.0540000014,-3.934050083,-0.5209500194,1.696612477,4.07962513,-1.433987498
20.67290067,-0.0540000014,-3.934050083,-0.5209500194,1.696612477,4.07962513,-1.433987498
20.69290067,-0.0540000014,-3.934050083,-0.5209500194,1.696612477,4.07962513,-1.433987498
20.71290067,-0.0540000014,-3.934050083,-0.5209500194,1.696612477,4.07962513,-1.433987498
20.73290067,-1.375050068,-11.59395027,-0.4060500264,0.07479999959,1.396175027,-0.803412497
20.75290067,-1.375050068,-11.59395027,-0.4060500264,0.07479999959,1.396175027,-0.803412497
20.77290067,-4.860000134,-12.64695072,-4.06305027,1.605450034,2.610300064,0.7829250097
20.79290067,-4.860000134,-12.64695072,-4.06305027,1.605450034,2.610300064,0.7829250097
20.81290067,-4.860000134,-12.64695072,-4.06305027,1.605450034,2.610300064,0.7829250097
20.83290067,-0.6469500065,-6.730050087,2.101950169,1.605450034,2.610300064,0.7829250097
20.85290067,-0.6469500065,-6.730050087,2.101950169,1.605450034,2.610300064,0.7829250097
20.87290067,0.4620000124,-9.448950768,1.393050075,-2.571799994,-1.706375003,-0.1017500013
20.89290067,0.4620000124,-9.448950768,1.393050075,-2.571799994,-1.706375003,-0.1017500013
20.91290067,0.4620000124,-9.448950768,1.393050075,-2.571799994,-1.706375003,-0.1017500013
20.93290067,0.4620000124,-9.448950768,1.393050075,-2.571799994,-1.706375003,-0.1017500013
20.95290067,0.4620000124,-9.448950768,1.393050075,-2.571799994,-1.706375003,-0.1017500013
20.97290067,5.593950272,-10.78995037,-0.9799500704,0.1507000029,-0.3454000056,-0.2289374918
20.99290067,5.593950272,-10.78995037,-0.9799500704,0.1507000029,-0.3454000056,-0.2289374918
21.01290067,6.763050556,-19.21500015,0.3589500189,0.214637503,-0.6155874729,-1.887737513
21.03290067,6.763050556,-19.21500015,0.3589500189,0.214637503,-0.6155874729,-1.887737513
21.05290067,6.763050556,-19.21500015,0.3589500189,0.214637503,-0.6155874729,-1.887737513
21.07290067,3.12405014,-17.60700035,1.75695014,0.214637503,-0.6155874729,-1.887737513
21.09290067,3.12405014,-17.60700035,1.75695014,0.214637503,-0.6155874729,-1.887737513
21.11290067,-1.279050112,-20.8240509,0.3970500231,-0.2551999986,-0.799974978,-0.885912478
21.13290067,-1.279050112,-20.8240509,0.3970500231,-0.2551999986,-0.799974978,-0.885912478
21.15290067,-3.864000082,-13.0489502,-3.29700017,-0.2341624945,-0.9491624832,-0.107387498
21.19290067,-3.864000082,-13.0489502,-3.29700017,-0.2341624945,-0.9491624832,-0.107387498
21.21290067,-7.636950493,-3.091950178,-0.9420000315,-0.7041375041,-2.144862413,1.594037533
21.23290067,-7.636950493,-3.091950178,-0.9420000315,-0.7041375041,-2.144862413,1.594037533
21.25290067,-7.636950493,-3.091950178,-0.9420000315,-1.049262524,-5.34242487,2.448324919
21.27290067,-7.636950493,-3.091950178,-0.9420000315,-1.049262524,-5.34242487,2.448324919
21.29290067,-7.636950493,-3.091950178,-0.9420000315,-1.049262524,-5.34242487,2.448324919
21.31290067,-4.132050037,0.9480000734,1.336050034,-1.049262524,-5.34242487,2.448324919
21.33290067,-4.132050037,0.9480000734,1.336050034,-1.049262524,-5.34242487,2.448324919
21.35290067,-4.132050037,0.9480000734,1.336050034,-1.049262524,-5.34242487,2.448324919
21.37290067,-4.132050037,0.9480000734,1.336050034,-1.049262524,-5.34242487,2.448324919
21.39290067,-4.132050037,0.9480000734,1.336050034,-1.049262524,-5.34242487,2.448324919
21.41290067,-1.393950105,-39.07305145,-10.97595024,-1.049262524,-5.34242487,2.448324919
21.43290067,-1.393950105,-39.07305145,-10.97595024,-1.049262524,-5.34242487,2.448324919
21.45290067,1.707000136,-14.35095024,18.79995155,3.896612406,8.357112885,1.010487437
21.47290067,1.707000136,-14.35095024,18.79995155,3.896612406,8.357112885,1.010487437
21.49290067,1.707000136,-14.35095024,18.79995155,6.738187313,16.18526268,0.1962125003
21.51290067,1.707000136,-14.35095024,18.79995155,6.738187313,16.18526268,0.1962125003
21.53290067,1.707000136,-14.35095024,18.79995155,6.738187313,16.18526268,0.1962125003
21.55290067,2.932950258,2.134950161,-9.598050117,2.945524931,8.052962303,-1.167512536
21.57290067,2.932950258,2.134950161,-9.598050117,2.945524931,8.052962303,-1.167512536
21.59290067,2.932950258,2.134950161,-9.598050117,0.9857375026,4.068624973,-1.01502502
21.61290067,2.932950258,2.134950161,-9.598050117,0.9857375026,4.068624973,-1.01502502
21.63290067,2.932950258,2.134950161,-9.598050117,0.9857375026,4.068624973,-1.01502502
21.65290067,1.840950131,-2.230050087,-1.267950058,0.9857375026,4.068624973,-1.01502502
21.67290067,1.840950131,-2.230050087,-1.267950058,0.9857375026,4.068624973,-1.01502502
21.69290067,3.238950253,-20.32605171,10.27800083,6.514887333,2.144725084,-4.304162502
21.71290067,3.238950253,-20.32605171,10.27800083,6.514887333,2.144725084,-4.304162502
21.73290067,3.238950253,-20.32605171,10.27800083,6.514887333,2.144725084,-4.304162502
21.75290067,3.238950253,-20.32605171,10.27800083,6.514887333,2.144725084,-4.304162502
21.77290067,3.238950253,-20.32605171,10.27800083,6.514887333,2.144725084,-4.304162502
21.79290067,0.003000000026,-28.12005043,-2.340000153,-0.7962625027,-0.1699499935,1.046650052
21.81290067,0.003000000026,-28.12005043,-2.340000153,-0.7962625027,-0.1699499935,1.046650052
21.83290067,-8.077050209,-18.9090004,-13.84905052,-0.3588750064,0.4474250078,1.587849975
21.85290067,-8.077050209,-18.9090004,-13.84905052,-0.3588750064,0.4474250078,1.587849975
21.87290067,-8.077050209,-18.9090004,-13.84905052,-0.3588750064,0.4474250078,1.587849975
21.89290067,-11.04495049,-3.9150002,-8.104050636,-0.3588750064,0.4474250078,1.587849975
21.91290067,-11.04495049,-3.9150002,-8.104050636,-0.3588750064,0.4474250078,1.587849975
21.93290067,-11.04495049,-3.9150002,-8.104050636,-0.3588750064,0.4474250078,1.587849975
21.95290067,-11.04495049,-3.9150002,-8.104050636,-0.3588750064,0.4474250078,1.587849975
21.97290067,-11.04495049,-3.9150002,-8.104050636,-4.79820013,-15.06120014,0.6429499984
21.99290067,-11.04495049,-3.9150002,-8.104050636,-4.79820013,-15.06120014,0.6429499984
22.01290067,-11.04495049,-3.9150002,-8.104050636,-4.79820013,-15.06120014,0.6429499984
22.03290067,-1.509000063,-3.301950216,-0.5779500008,-7.672637463,-15.84494972,-0.2976875007
22.05290067,-1.509000063,-3.301950216,-0.5779500008,-7.672637463,-15.84494972,-0.2976875007
22.07290067,-1.509000063,-3.301950216,-0.5779500008,-7.672637463,-15.84494972,-0.2976875007
22.09290067,-1.509000063,-3.301950216,-0.5779500008,-7.672637463,-15.84494972,-0.2976875007
22.11290067,-1.509000063,-3.301950216,-0.5779500008,-7.672637463,-15.84494972,-0.2976875007
22.13290067,3.39195013,-33.71100235,-1.497000098,-7.672637463,-15.84494972,-0.2976875007
22.15290067,3.39195013,-33.71100235,-1.497000098,-7.672637463,-15.84494972,-0.2976875007
22.17290067,5.038950443,-1.311000109,21.78705025,-7.348275185,-17.10115051,-6.423587322
22.19290067,5.038950443,-1.311000109,21.78705025,-7.348275185,-17.10115051,-6.423587322
22.21290067,5.038950443,-1.311000109,21.78705025,-5.461500168,-18.06598663,-4.16762495
22.23290067,5.038950443,-1.311000109,21.78705025,-5.461500168,-18.06598663,-4.16762495
22.25290067,5.038950443,-1.311000109,21.78705025,-5.461500168,-18.06598663,-4.16762495
22.27290067,6.30300045,5.199000359,-6.993000507,-4.11289978,-15.14865017,-4.963887691
22.29290067,6.30300045,5.199000359,-6.993000507,-4.11289978,-15.14865017,-4.963887691
22.31290067,6.30300045,5.199000359,-6.993000507,-2.219799995,-10.09676266,-5.021774769
22.33290067,6.30300045,5.199000359,-6.993000507,-2.219799995,-10.09676266,-5.021774769
22.35290067,6.30300045,5.199000359,-6.993000507,-2.219799995,-10.09676266,-5.021774769
22.37290067,2.089950085,-13.47105026,0.01395000052,0.9950875044,-4.270337582,-9.039662361
22.39290067,2.089950085,-13.47105026,0.01395000052,0.9950875044,-4.270337582,-9.039662361
22.41290067,0.940950036,-34.95600128,11.12100029,0.9950875044,-4.270337582,-9.039662361
22.43290067,0.940950036,-34.95600128,11.12100029,0.9950875044,-4.270337582,-9.039662361
22.45290067,0.940950036,-34.95600128,11.12100029,0.9950875044,-4.270337582,-9.039662361
22.47290067,-0.09195000678,-31.12605095,-2.704050064,0.9950875044,-4.270337582,-9.039662361
22.49290067,-0.09195000678,-31.12605095,-2.704050064,0.9950875044,-4.270337582,-9.039662361
22.51290067,-1.873050094,-24.07905197,-5.155050278,0.7875999808,-0.7342500091,3.097325087
22.53290067,-1.873050094,-24.07905197,-5.155050278,0.7875999808,-0.7342500091,3.097325087
22.55290067,-6.603000164,-12.91500092,-5.40405035,0.446462512,-0.05403750017,3.029537439
22.57290067,-6.603000164,-12.91500092,-5.40405035,0.446462512,-0.05403750017,3.029537439
22.59290067,-6.603000164,-12.91500092,-5.40405035,0.446462512,-0.05403750017,3.029537439
22.61290067,-10.29795074,-0.1039500013,-5.365950108,-0.1067000031,-0.1430000067,2.911149979
22.63290067,-10.29795074,-0.1039500013,-5.365950108,-0.1067000031,-0.1430000067,2.911149979
22.65290067,-10.29795074,-0.1039500013,-5.365950108,-1.920187473,-6.346449852,2.399237394
22.67290067,-10.29795074,-0.1039500013,-5.365950108,-1.920187473,-6.346449852,2.399237394
22.69290067,-10.29795074,-0.1039500013,-5.365950108,-8.504099846,-16.8465004,-1.941499949
22.71290067,-1.720050097,2.632950068,8.113950729,-8.504099846,-16.8465004,-1.941499949
22.73290067,-1.720050097,2.632950068,8.113950729,-8.504099846,-16.8465004,-1.941499949
22.75290067,-0.2070000172,-9.660000801,-1.842000127,-9.494649887,-11.71871281,0.5257999897
22.77290067,-0.2070000172,-9.660000801,-1.842000127,-9.494649887,-11.71871281,0.5257999897
22.79290067,-0.2070000172,-9.660000801,-1.842000127,-9.494649887,-11.71871281,0.5257999897
22.81290067,-0.2070000172,-9.660000801,-1.842000127,-9.494649887,-11.71871281,0.5257999897
22.83290067,-0.2070000172,-9.660000801,-1.842000127,-9.494649887,-11.71871281,0.5257999897
22.85290067,0.9030000567,-17.03205109,5.413950443,4.581637383,4.429287434,-1.400849938
22.87290067,0.9030000567,-17.03205109,5.413950443,4.581637383,4.429287434,-1.400849938
22.89290067,0.3280500174,-1.426050067,2.656950235,8.664837837,18.46418762,0.894299984
22.91290067,0.3280500174,-1.426050067,2.656950235,8.664837837,18.46418762,0.894299984
22.93290067,0.3280500174,-1.426050067,2.656950235,8.664837837,18.46418762,0.894299984
22.95290067,0.3280500174,-1.426050067,2.656950235,8.664837837,18.46418762,0.894299984
22.97290067,0.3280500174,-1.426050067,2.656950235,8.664837837,18.46418762,0.894299984
22.99290067,0.3280500174,-1.426050067,2.656950235,1.321099997,3.241425037,-1.400849938
23.01290067,0.3280500174,-1.426050067,2.656950235,1.321099997,3.241425037,-1.400849938
23.03290067,0.3280500174,-1.426050067,2.656950235,2.065112591,1.887874961,-4.238712311
23.05290067,0.3280500174,-1.426050067,2.656950235,2.065112591,1.887874961,-4.238712311
23.07290067,0.3280500174,-1.426050067,2.656950235,2.065112591,1.887874961,-4.238712311
23.09290067,3.603000164,-16.82205009,-0.6930000186,7.793087482,1.08130002,-7.734237671
23.11290067,3.603000164,-16.82205009,-0.6930000186,7.793087482,1.08130002,-7.734237671
23.13290067,3.603000164,-16.82205009,-0.6930000186,7.793087482,1.08130002,-7.734237671
23.15290067,3.603000164,-16.82205009,-0.6930000186,7.793087482,1.08130002,-7.734237671
23.17290067,3.603000164,-16.82205009,-0.6930000186,7.793087482,1.08130002,-7.734237671
23.19290067,0.4429500103,-27.98595047,-2.569950104,7.793087482,1.08130002,-7.734237671
23.21290067,0.4429500103,-27.98595047,-2.569950104,7.793087482,1.08130002,-7.734237671
23.23290067,-2.236950159,-24.30900192,-4.40805006,0.1227874979,0.9719874859,3.338224888
23.25290067,-2.236950159,-24.30900192,-4.40805006,0.1227874979,0.9719874859,3.338224888
23.27290067,-2.236950159,-24.30900192,-4.40805006,0.1227874979,0.9719874859,3.338224888
23.29290067,-8.61300087,-10.84695053,-10.2289505,0.1227874979,0.9719874859,3.338224888
23.31290067,-8.61300087,-10.84695053,-10.2289505,0.1227874979,0.9719874859,3.338224888
23.33290067,-15.54495049,-0.7750500441,-9.769950867,-0.6102250218,-0.5629249811,2.909637451
23.35290067,-15.54495049,-0.7750500441,-9.769950867,-0.6102250218,-0.5629249811,2.909637451
23.37290067,-15.54495049,-0.7750500441,-9.769950867,-2.207974911,-7.213662624,2.539074898
23.39290067,-15.54495049,-0.7750500441,-9.769950867,-2.207974911,-7.213662624,2.539074898
23.41290067,-15.54495049,-0.7750500441,-9.769950867,-2.207974911,-7.213662624,2.539074898
23.43290067,-2.371050119,1.387950063,12.94005108,-8.212462425,-14.19288731,0.8380625248
23.45290067,-2.371050119,1.387950063,12.94005108,-8.212462425,-14.19288731,0.8380625248
23.47290067,-3.309000254,-9.277050018,3.09705019,-8.430812836,-11.33192539,2.168649912
23.49290067,-3.309000254,-9.277050018,3.09705019,-8.430812836,-11.33192539,2.168649912
23.51290067,-3.309000254,-9.277050018,3.09705019,-8.430812836,-11.33192539,2.168649912
23.53290067,2.185950041,-39.07305145,-14.65305042,-8.430812836,-11.33192539,2.168649912
23.55290067,2.185950041,-39.07305145,-14.65305042,-8.430812836,-11.33192539,2.168649912
23.57290067,0.5970000029,-23.52405167,0.378000021,0.674849987,-3.077112436,-4.615462303
23.59290067,0.5970000029,-23.52405167,0.378000021,0.674849987,-3.077112436,-4.615462303
23.61290067,-0.09195000678,-0.5830500126,37.69995117,10.02320004,22.01457405,0.640062511
23.63290067,-0.09195000678,-0.5830500126,37.69995117,10.02320004,22.01457405,0.640062511
23.65290067,-0.09195000678,-0.5830500126,37.69995117,10.02320004,22.01457405,0.640062511
23.67290067,13.36905098,2.728950024,-5.26995039,3.076012373,10.12481213,-1.61864996
23.69290067,13.36905098,2.728950024,-5.26995039,3.076012373,10.12481213,-1.61864996
23.71290067,13.36905098,2.728950024,-5.26995039,0.4860624969,4.972962379,-2.196150064
23.73290067,13.36905098,2.728950024,-5.26995039,0.4860624969,4.972962379,-2.196150064
23.75290067,13.36905098,2.728950024,-5.26995039,-0.4034250081,3.244587421,-3.837899923
23.77290067,3.238950253,-3.28305006,-3.106050253,-0.4034250081,3.244587421,-3.837899923
23.79290067,3.238950253,-3.28305006,-3.106050253,-0.4034250081,3.244587421,-3.837899923
23.81290067,3.334950209,-22.96800041,6.870000362,-0.5858874917,2.295287371,-5.82628727
23.83290067,3.334950209,-22.96800041,6.870000362,-0.5858874917,2.295287371,-5.82628727
23.85290067,3.334950209,-22.96800041,6.870000362,-0.5858874917,2.295287371,-5.82628727
23.87290067,3.334950209,-22.96800041,6.870000362,-0.5858874917,2.295287371,-5.82628727
23.89290067,3.334950209,-22.96800041,6.870000362,-0.5858874917,2.295287371,-5.82628727
23.91290067,3.334950209,-22.96800041,6.870000362,-0.5858874917,2.295287371,-5.82628727
23.93290067,3.334950209,-22.96800041,6.870000362,-0.5858874917,2.295287371,-5.82628727
23.95290067,0.6349500418,-13.87305069,-2.224950075,-0.5858874917,2.295287371,-5.82628727
23.99290067,0.6349500418,-13.87305069,-2.224950075,0.5097125173,1.117599964,2.341350079
24.01290067,0.6349500418,-13.87305069,-2.224950075,0.5097125173,1.117599964,2.341350079
24.03290067,0.6349500418,-13.87305069,-2.224950075,0.5097125173,1.117599964,2.341350079
24.05290067,0.6349500418,-13.87305069,-2.224950075,0.07191249728,0.9288125038,1.740337491
24.07290067,0.6349500418,-13.87305069,-2.224950075,0.07191249728,0.9288125038,1.740337491
24.09290067,0.6349500418,-13.87305069,-2.224950075,-1.847725034,-2.667087555,1.634325027
24.11290067,0.6349500418,-13.87305069,-2.224950075,-1.847725034,-2.667087555,1.634325027
24.13290067,0.6349500418,-13.87305069,-2.224950075,-1.847725034,-2.667087555,1.634325027
24.15290067,-9.475050926,-0.7939500213,-4.351050377,-3.888225079,-9.101124763,1.33375001
24.17290067,-9.475050926,-0.7939500213,-4.351050377,-3.888225079,-9.101124763,1.33375001
24.19290067,-9.475050926,-0.7939500213,-4.351050377,-3.888225079,-9.101124763,1.33375001
24.21290067,-9.475050926,-0.7939500213,-4.351050377,-3.888225079,-9.101124763,1.33375001
24.23290067,-9.475050926,-0.7939500213,-4.351050377,-3.888225079,-9.101124763,1.33375001
24.25290067,-1.758000135,-19.12005043,4.323000431,-4.407149792,-8.420637131,0.1619749963
24.27290067,-1.758000135,-19.12005043,4.323000431,-4.407149792,-8.420637131,0.1619749963
24.29290067,11.24295044,-39.07305145,3.09705019,-1.341312528,-6.03047514,-1.423537493
24.31290067,11.24295044,-39.07305145,3.09705019,-1.341312528,-6.03047514,-1.423537493
24.33290067,11.24295044,-39.07305145,3.09705019,-1.341312528,-6.03047514,-1.423537493
24.35290067,1.55400002,-5.773050308,7.080000401,-1.341312528,-6.03047514,-1.423537493
24.37290067,1.55400002,-5.773050308,7.080000401,-1.341312528,-6.03047514,-1.423537493
24.39290067,4.042950153,0.1630500108,-0.9420000315,-4.699887276,-22.99440002,-0.1744875014
24.41290067,4.042950153,0.1630500108,-0.9420000315,-4.699887276,-22.99440002,-0.1744875014
24.43290067,4.042950153,0.1630500108,-0.9420000315,-2.20728755,-15.4269495,-0.3280749917
24.45290067,4.042950153,0.1630500108,-0.9420000315,-2.20728755,-15.4269495,-0.3280749917
24.47290067,4.042950153,0.1630500108,-0.9420000315,-2.20728755,-15.4269495,-0.3280749917
24.49290067,2.416050196,-0.1999500096,-3.049050093,-1.376512527,-10.82853699,-0.9229000211
24.51290067,2.416050196,-0.1999500096,-3.049050093,-1.376512527,-10.82853699,-0.9229000211
24.53290067,1.477050066,-6.826050282,-2.838000059,0.7609249949,-8.197612762,-3.796925068
24.55290067,1.477050066,-6.826050282,-2.838000059,0.7609249949,-8.197612762,-3.796925068
24.57290067,1.477050066,-6.826050282,-2.838000059,0.7609249949,-8.197612762,-3.796925068
24.59290067,-2.217000008,-22.26000023,-6.438000202,0.7609249949,-8.197612762,-3.796925068
24.61290067,-2.217000008,-22.26000023,-6.438000202,0.7609249949,-8.197612762,-3.796925068
24.63290067,-0.9919500351,-36.4300499,-0.6169500351,-1.616724968,-6.31069994,1.379262447
24.65290067,-0.9919500351,-36.4300499,-0.6169500351,-1.616724968,-6.31069994,1.379262447
24.67290067,-0.9919500351,-36.4300499,-0.6169500351,-1.616724968,-6.31069994,1.379262447
24.69290067,-0.9919500351,-36.4300499,-0.6169500351,-1.616724968,-6.31069994,1.379262447
24.71290067,-0.9919500351,-36.4300499,-0.6169500351,-1.616724968,-6.31069994,1.379262447
24.73290067,11.97105026,-8.932050705,-10.57395077,1.217012525,-0.08703749627,2.027437449
24.75290067,11.97105026,-8.932050705,-10.57395077,1.217012525,-0.08703749627,2.027437449
24.77290067,11.97105026,-8.932050705,-10.57395077,1.217012525,-0.08703749627,2.027437449
24.79290067,11.97105026,-8.932050705,-10.57395077,1.217012525,-0.08703749627,2.027437449
24.81290067,11.97105026,-8.932050705,-10.57395077,1.217012525,-0.08703749627,2.027437449
24.83290067,3.793950081,-4.14495039,-0.2910000086,1.217012525,-0.08703749627,2.027437449
24.85290067,3.793950081,-4.14495039,-0.2910000086,1.217012525,-0.08703749627,2.027437449
24.87290067,-0.3790500164,-11.09595013,3.058950186,0.8046500087,0.764362514,-1.927612543
24.89290067,-0.3790500164,-11.09595013,3.058950186,0.8046500087,0.764362514,-1.927612543
24.91290067,-0.3790500164,-11.09595013,3.058950186,0.8046500087,0.764362514,-1.927612543
24.93290067,-0.3790500164,-11.09595013,3.058950186,0.8046500087,0.764362514,-1.927612543
24.95290067,-0.3790500164,-11.09595013,3.058950186,0.8046500087,0.764362514,-1.927612543
24.97290067,-0.2260500044,-12.24495029,-10.24905014,-1.302399993,-0.81606251,-0.2396624982
24.99290067,-0.2260500044,-12.24495029,-10.24905014,-1.302399993,-0.81606251,-0.2396624982
25.01290067,-0.9919500351,-8.664000511,-4.351050377,-0.4857875109,-0.6017000079,2.008599997
25.03290067,-0.9919500351,-8.664000511,-4.351050377,-0.4857875109,-0.6017000079,2.008599997
25.05290067,-0.9919500351,-8.664000511,-4.351050377,-0.4857875109,-0.6017000079,2.008599997
25.07290067,-2.791950226,-11.13405037,-2.608050108,-0.4857875109,-0.6017000079,2.008599997
25.09290067,-2.791950226,-11.13405037,-2.608050108,-0.4857875109,-0.6017000079,2.008599997
25.11290067,-2.026050091,-11.1919508,1.068000078,-0.1962125003,-4.194437504,1.233237505
25.13290067,-2.026050091,-11.1919508,1.068000078,-0.1962125003,-4.194437504,1.233237505
25.15290067,-2.026050091,-11.1919508,1.068000078,0.6638500094,1.347637534,1.912349939
25.17290067,2.952000141,-19.3879509,19.6039505,0.6638500094,1.347637534,1.912349939
25.19290067,2.952000141,-19.3879509,19.6039505,0.6638500094,1.347637534,1.912349939
25.21290067,5.250000477,-16.15095139,4.323000431,2.127949953,10.16111279,0.4526500106
25.23290067,5.250000477,-16.15095139,4.323000431,2.127949953,10.16111279,0.4526500106
25.25290067,5.250000477,-16.15095139,4.323000431,2.242074966,6.961349964,-0.6395124793
25.27290067,5.250000477,-16.15095139,4.323000431,2.242074966,6.961349964,-0.6395124793
25.29290067,5.250000477,-16.15095139,4.323000431,2.242074966,6.961349964,-0.6395124793
25.31290067,3.162000179,-6.289950371,2.560950041,1.880312443,3.693799973,-0.7997000217
25.33290067,3.162000179,-6.289950371,2.560950041,1.880312443,3.693799973,-0.7997000217
25.35290067,3.75600028,-6.691950321,-0.4830000103,1.812937498,1.736899972,-1.083087444
25.37290067,3.75600028,-6.691950321,-0.4830000103,1.812937498,1.736899972,-1.083087444
25.39290067,3.75600028,-6.691950321,-0.4830000103,1.812937498,1.736899972,-1.083087444
25.41290067,3.871050119,-6.481050491,-3.124950171,1.812937498,1.736899972,-1.083087444
25.43290067,3.871050119,-6.481050491,-3.124950171,1.812937498,1.736899972,-1.083087444
25.45290067,2.052000046,-8.109000206,-2.818950176,-1.927474976,-1.638999939,-0.9513624907
25.47290067,2.052000046,-8.109000206,-2.818950176,-1.927474976,-1.638999939,-0.9513624907
25.49290067,2.052000046,-8.109000206,-2.818950176,-1.888287544,-1.767562509,-0.5893250108
25.51290067,2.052000046,-8.109000206,-2.818950176,-1.888287544,-1.767562509,-0.5893250108
25.53290067,2.052000046,-8.109000206,-2.818950176,-1.888287544,-1.767562509,-0.5893250108
25.55290067,-5.760000229,-19.80900002,-3.949050188,-2.139225006,-1.156649947,1.008837461
25.57290067,-5.760000229,-19.80900002,-3.949050188,-2.139225006,-1.156649947,1.008837461
25.59290067,-5.760000229,-19.80900002,-3.949050188,-1.576849937,0.7525374889,2.688262463
25.61290067,-5.760000229,-19.80900002,-3.949050188,-1.576849937,0.7525374889,2.688262463
25.63290067,-5.760000229,-19.80900002,-3.949050188,-0.2096875012,2.421237469,2.996124983
25.65290067,-1.011000037,-7.438950539,3.538050175,-0.2096875012,2.421237469,2.996124983
25.67290067,-1.011000037,-7.438950539,3.538050175,-0.2096875012,2.421237469,2.996124983
25.69290067,3.105000257,-9.487950325,1.258950114,0.9586499929,2.703662395,2.119562387
25.71290067,3.105000257,-9.487950325,1.258950114,0.9586499929,2.703662395,2.119562387
25.73290067,3.105000257,-9.487950325,1.258950114,0.9586499929,2.703662395,2.119562387
25.75290067,3.105000257,-9.487950325,1.258950114,0.9586499929,2.703662395,2.119562387
25.77290067,3.105000257,-9.487950325,1.258950114,0.9586499929,2.703662395,2.119562387
25.79290067,5.824050426,-10.4449501,-0.9040500522,0.6298875213,0.4740999937,-0.3190000057
25.81290067,5.824050426,-10.4449501,-0.9040500522,0.6298875213,0.4740999937,-0.3190000057
25.83290067,5.824050426,-10.4449501,-0.9040500522,0.6298875213,0.4740999937,-0.3190000057
25.85290067,5.824050426,-10.4449501,-0.9040500522,0.6298875213,0.4740999937,-0.3190000057
25.87290067,5.824050426,-10.4449501,-0.9040500522,0.6298875213,0.4740999937,-0.3190000057
25.89290067,8.179950714,-12.36000061,1.738050103,0.6298875213,0.4740999937,-0.3190000057
25.91290067,8.179950714,-12.36000061,1.738050103,0.6298875213,0.4740999937,-0.3190000057
25.93290067,8.179950714,-12.36000061,1.738050103,0.6298875213,0.4740999937,-0.3190000057
25.95290067,8.179950714,-12.36000061,1.738050103,0.6298875213,0.4740999937,-0.3190000057
25.97290067,8.179950714,-12.36000061,1.738050103,0.2543750107,0.3166624904,-1.168887496
25.99290067,8.179950714,-12.36000061,1.738050103,0.2543750107,0.3166624904,-1.168887496
26.01290067,8.179950714,-12.36000061,1.738050103,0.2543750107,0.3166624904,-1.168887496
26.03290067,0.3859500289,-12.76200104,-2.014050007,0.1507000029,1.400300026,-0.3334375024
26.05290067,0.3859500289,-12.76200104,-2.014050007,0.1507000029,1.400300026,-0.3334375024
26.07290067,0.3859500289,-12.76200104,-2.014050007,0.1507000029,1.400300026,-0.3334375024
26.09290067,0.3859500289,-12.76200104,-2.014050007,0.1507000029,1.400300026,-0.3334375024
26.11290067,0.3859500289,-12.76200104,-2.014050007,0.1507000029,1.400300026,-0.3334375024
26.13290067,-0.09195000678,-7.477050304,-1.726950049,-1.122412443,2.685100079,1.349699974
26.15290067,-0.09195000678,-7.477050304,-1.726950049,-1.122412443,2.685100079,1.349699974
26.17290067,0.9220500588,-9.736050606,-1.153050065,-1.481425047,3.273187399,1.65646255
26.19290067,0.9220500588,-9.736050606,-1.153050065,-1.481425047,3.273187399,1.65646255
26.21290067,0.9220500588,-9.736050606,-1.153050065,-1.481425047,3.273187399,1.65646255
26.23290067,1.248000026,-13.87305069,-0.04200000316,-1.481425047,3.273187399,1.65646255
26.25290067,1.248000026,-13.87305069,-0.04200000316,-1.481425047,3.273187399,1.65646255
26.27290067,1.248000026,-13.87305069,-0.04200000316,-1.256887436,2.85559988,0.7306749821
26.29290067,1.248000026,-13.87305069,-0.04200000316,-1.256887436,2.85559988,0.7306749821
26.31290067,1.248000026,-13.87305069,-0.04200000316,-0.1958000064,2.147337437,0.7294374704
26.33290067,1.248000026,-13.87305069,-0.04200000316,-0.1958000064,2.147337437,0.7294374704
26.35290067,1.248000026,-13.87305069,-0.04200000316,-0.1958000064,2.147337437,0.7294374704
26.37290067,1.5160501,-9.04695034,-2.875950098,0.3935250044,1.276137471,0.6865375042
26.39290067,1.5160501,-9.04695034,-2.875950098,0.3935250044,1.276137471,0.6865375042
26.41290067,4.33095026,-12.16800022,-0.4830000103,0.1735250056,0.3755125105,0.3185875118
26.43290067,4.33095026,-12.16800022,-0.4830000103,0.1735250056,0.3755125105,0.3185875118
26.45290067,4.33095026,-12.16800022,-0.4830000103,0.1735250056,0.3755125105,0.3185875118
26.47290067,3.277050257,-14.98305035,0.9340500236,0.1735250056,0.3755125105,0.3185875118
26.49290067,3.277050257,-14.98305035,0.9340500236,0.1735250056,0.3755125105,0.3185875118
26.51290067,2.281949997,-8.166000366,1.52700007,0.326287508,-2.24317503,-0.5913875103
26.53290067,2.281949997,-8.166000366,1.52700007,0.326287508,-2.24317503,-0.5913875103
26.55290067,2.281949997,-8.166000366,1.52700007,0.326287508,-2.24317503,-0.5913875103
26.57290067,2.281949997,-8.166000366,1.52700007,0.326287508,-2.24317503,-0.5913875103
26.59290067,2.281949997,-8.166000366,1.52700007,0.326287508,-2.24317503,-0.5913875103
26.61290067,2.281949997,-8.166000366,1.52700007,1.166000009,-4.356824875,-1.545912504
26.63290067,2.281949997,-8.166000366,1.52700007,1.166000009,-4.356824875,-1.545912504
26.65290067,2.281949997,-8.166000366,1.52700007,1.265962481,-3.477099895,-1.203537464
26.67290067,2.281949997,-8.166000366,1.52700007,1.265962481,-3.477099895,-1.203537464
26.69290067,2.281949997,-8.166000366,1.52700007,1.265962481,-3.477099895,-1.203537464
26.71290067,1.036949992,-6.097950459,2.427000046,1.265962481,-3.477099895,-1.203537464
26.73290067,1.036949992,-6.097950459,2.427000046,1.265962481,-3.477099895,-1.203537464
26.75290067,1.822050095,-9.448950768,1.585050106,1.417487502,-2.065387487,-0.3905000091
26.77290067,1.822050095,-9.448950768,1.585050106,1.417487502,-2.065387487,-0.3905000091
26.79290067,1.822050095,-9.448950768,1.585050106,1.417487502,-2.065387487,-0.3905000091
26.81290067,1.822050095,-9.448950768,1.585050106,1.417487502,-2.065387487,-0.3905000091
26.83290067,1.822050095,-9.448950768,1.585050106,1.417487502,-2.065387487,-0.3905000091
26.85290067,-6.448950291,-16.3240509,-8.257050514,-1.186074972,-2.33859992,1.242862463
26.87290067,-6.448950291,-16.3240509,-8.257050514,-1.186074972,-2.33859992,1.242862463
26.89290067,1.381950021,-10.52205086,-12.48900032,-1.587987542,-1.595275044,2.754262447
26.91290067,1.381950021,-10.52205086,-12.48900032,-1.587987542,-1.595275044,2.754262447
26.93290067,1.381950021,-10.52205086,-12.48900032,-1.587987542,-1.595275044,2.754262447
26.95290067,1.381950021,-10.52205086,-12.48900032,-1.587987542,-1.595275044,2.754262447
26.97290067,1.381950021,-10.52205086,-12.48900032,-1.587987542,-1.595275044,2.754262447
26.99290067,1.381950021,-10.52205086,-12.48900032,0.01567500085,-0.833525002,0.8122124672
27.01290067,1.381950021,-10.52205086,-12.48900032,0.01567500085,-0.833525002,0.8122124672
27.03290067,1.381950021,-10.52205086,-12.48900032,0.01567500085,-0.833525002,0.8122124672
27.05290067,5.958000183,-7.668000221,-4.638000011,0.01567500085,-0.833525002,0.8122124672
27.07290067,5.958000183,-7.668000221,-4.638000011,0.01567500085,-0.833525002,0.8122124672
27.09290067,3.565050125,-7.552950382,-4.446000099,-0.009487500414,-1.627037525,-1.095875025
27.11290067,3.565050125,-7.552950382,-4.446000099,-0.009487500414,-1.627037525,-1.095875025
27.13290067,3.565050125,-7.552950382,-4.446000099,-0.009487500414,-1.627037525,-1.095875025
27.15290067,3.565050125,-7.552950382,-4.446000099,-0.009487500414,-1.627037525,-1.095875025
27.17290067,3.565050125,-7.552950382,-4.446000099,-0.009487500414,-1.627037525,-1.095875025
27.19290067,1.95600009,-10.29195023,1.221000075,0.00371249998,-1.128187537,-2.172637463
27.21290067,1.95600009,-10.29195023,1.221000075,0.00371249998,-1.128187537,-2.172637463
27.23290067,-0.45600003,-10.33005047,1.431000113,-0.2682625055,-1.158712506,-1.284250021
27.25290067,-0.45600003,-10.33005047,1.431000113,-0.2682625055,-1.158712506,-1.284250021
27.27290067,-0.45600003,-10.33005047,1.431000113,-0.2682625055,-1.158712506,-1.284250021
27.29290067,0.673050046,-12.18795013,-5.251050472,-0.2682625055,-1.158712506,-1.284250021
27.31290067,0.673050046,-12.18795013,-5.251050472,-0.2682625055,-1.158712506,-1.284250021
27.33290067,0.673050046,-12.18795013,-5.251050472,0.1274625063,1.267199993,1.336774945
27.35290067,0.673050046,-12.18795013,-5.251050472,0.1274625063,1.267199993,1.336774945
27.37290067,0.673050046,-12.18795013,-5.251050472,0.004262499977,2.333649874,1.584962487
27.39290067,0.673050046,-12.18795013,-5.251050472,0.004262499977,2.333649874,1.584962487
27.41290067,0.673050046,-12.18795013,-5.251050472,0.004262499977,2.333649874,1.584962487
27.43290067,-5.415000439,-8.511000633,6.793050289,-0.4042499959,3.656399965,2.259675026
27.45290067,-5.415000439,-8.511000633,6.793050289,-0.4042499959,3.656399965,2.259675026
27.47290067,4.350000381,-22.83405113,0.493050009,0.5527499914,4.626187325,1.947000027
27.49290067,4.350000381,-22.83405113,0.493050009,0.5527499914,4.626187325,1.947000027
27.51290067,4.350000381,-22.83405113,0.493050009,0.5527499914,4.626187325,1.947000027
27.53290067,5.191950321,-22.26000023,4.513950348,0.5527499914,4.626187325,1.947000027
27.55290067,5.191950321,-22.26000023,4.513950348,0.5527499914,4.626187325,1.947000027
27.57290067,3.048000097,-7.726050377,5.817000389,1.302812457,-0.02543750033,-0.3910500109
27.59290067,3.048000097,-7.726050377,5.817000389,1.302812457,-0.02543750033,-0.3910500109
27.61290067,3.048000097,-7.726050377,5.817000389,1.784199953,-0.2538250089,-0.6549124718
27.63290067,3.048000097,-7.726050377,5.817000389,1.784199953,-0.2538250089,-0.6549124718
27.65290067,3.048000097,-7.726050377,5.817000389,1.784199953,-0.2538250089,-0.6549124718
27.67290067,3.909000158,-1.330050111,-0.9420000315,1.807299972,-1.104262471,-1.510437489
27.69290067,3.909000158,-1.330050111,-0.9420000315,1.807299972,-1.104262471,-1.510437489
27.71290067,3.909000158,-1.330050111,-0.9420000315,0.575712502,-1.666224957,-2.094675064
27.73290067,3.909000158,-1.330050111,-0.9420000315,0.575712502,-1.666224957,-2.094675064
27.75290067,3.909000158,-1.330050111,-0.9420000315,0.575712502,-1.666224957,-2.094675064
27.77290067,1.477050066,-11.28795052,8.229000092,0.575712502,-1.666224957,-2.094675064
27.79290067,1.477050066,-11.28795052,8.229000092,0.575712502,-1.666224957,-2.094675064
27.81290067,-5.548950195,-21.09195137,-6.342000484,0.623287499,-0.6901124716,-1.46905005
27.83290067,-5.548950195,-21.09195137,-6.342000484,0.623287499,-0.6901124716,-1.46905005
27.85290067,-5.548950195,-21.09195137,-6.342000484,0.623287499,-0.6901124716,-1.46905005
27.87290067,-5.548950195,-21.09195137,-6.342000484,0.623287499,-0.6901124716,-1.46905005
27.89290067,-5.548950195,-21.09195137,-6.342000484,0.623287499,-0.6901124716,-1.46905005
27.91290067,-3.844950199,-10.23405075,3.270000219,-2.407900095,-0.7419499755,3.080275059
27.93290067,-3.844950199,-10.23405075,3.270000219,-2.407900095,-0.7419499755,3.080275059
27.95290067,-3.844950199,-10.23405075,3.270000219,-2.407900095,-0.7419499755,3.080275059
27.97290067,-3.844950199,-10.23405075,3.270000219,-2.407900095,-0.7419499755,3.080275059
27.99290067,-3.844950199,-10.23405075,3.270000219,-2.407900095,-0.7419499755,3.080275059
28.01290067,3.69900012,-12.28305054,0.780000031,0.9164375067,2.619512558,2.091512442
28.03290067,3.69900012,-12.28305054,0.780000031,0.9164375067,2.619512558,2.091512442
28.05290067,3.69900012,-12.28305054,0.780000031,0.6825500131,2.226262569,1.2186625
28.07290067,3.69900012,-12.28305054,0.780000031,0.6825500131,2.226262569,1.2186625
28.09290067,3.69900012,-12.28305054,0.780000031,0.6825500131,2.226262569,1.2186625
28.11290067,11.3010006,-8.932050705,-3.834000111,0.6825500131,2.226262569,1.2186625
28.13290067,11.3010006,-8.932050705,-3.834000111,0.6825500131,2.226262569,1.2186625
28.15290067,5.977050304,-3.570000172,0.109950006,1.151975036,-0.9492999911,-3.800775051
28.17290067,5.977050304,-3.570000172,0.109950006,1.151975036,-0.9492999911,-3.800775051
28.19290067,5.977050304,-3.570000172,0.109950006,1.151975036,-0.9492999911,-3.800775051
28.21290067,5.977050304,-3.570000172,0.109950006,1.151975036,-0.9492999911,-3.800775051
28.23290067,5.977050304,-3.570000172,0.109950006,1.151975036,-0.9492999911,-3.800775051
28.25290067,-0.5130000114,-14.90700054,1.393050075,-0.4736874998,-0.8021749854,-2.134687424
28.27290067,-0.5130000114,-14.90700054,1.393050075,-0.4736874998,-0.8021749854,-2.134687424
28.29290067,0.2710500062,-13.81500053,-4.753050327,-0.6921749711,0.4310624897,0.02901249938
28.31290067,0.2710500062,-13.81500053,-4.753050327,-0.6921749711,0.4310624897,0.02901249938
28.33290067,0.2710500062,-13.81500053,-4.753050327,-0.6921749711,0.4310624897,0.02901249938
28.35290067,0.3090000153,-11.74695015,-8.085000038,-0.6921749711,0.4310624897,0.02901249938
28.37290067,0.3090000153,-11.74695015,-8.085000038,-0.6921749711,0.4310624897,0.02901249938
28.39290067,-2.926050186,-9.985050201,-4.753050327,-1.794649959,3.964400053,3.036550045
28.41290067,-2.926050186,-9.985050201,-4.753050327,-1.794649959,3.964400053,3.036550045
28.43290067,-2.926050186,-9.985050201,-4.753050327,-1.794649959,3.964400053,3.036550045
28.45290067,-2.926050186,-9.985050201,-4.753050327,-1.794649959,3.964400053,3.036550045
28.47290067,-2.926050186,-9.985050201,-4.753050327,-1.794649959,3.964400053,3.036550045
28.49290067,-0.5899500251,-23.9640007,4.572000027,-0.9398124814,3.730925083,2.240700006
28.51290067,-0.5899500251,-23.9640007,4.572000027,-0.9398124814,3.730925083,2.240700006
28.53290067,-0.5899500251,-23.9640007,4.572000027,-0.9398124814,3.730925083,2.240700006
28.55290067,-0.5899500251,-23.9640007,4.572000027,-0.9398124814,3.730925083,2.240700006
28.57290067,-0.5899500251,-23.9640007,4.572000027,-0.9398124814,3.730925083,2.240700006
28.59290067,0.4240500331,-5.773050308,9.742050171,-0.9398124814,3.730925083,2.240700006
28.61290067,0.4240500331,-5.773050308,9.742050171,-0.9398124814,3.730925083,2.240700006
28.63290067,3.220050097,-4.297950268,-1.134000063,2.631062508,-0.1329624951,-0.1421750039
28.65290067,3.220050097,-4.297950268,-1.134000063,2.631062508,-0.1329624951,-0.1421750039
28.67290067,3.220050097,-4.297950268,-1.134000063,1.868350029,-0.5548124909,-0.9952250123
28.69290067,3.220050097,-4.297950268,-1.134000063,1.868350029,-0.5548124909,-0.9952250123
28.71290067,3.220050097,-4.297950268,-1.134000063,1.868350029,-0.5548124909,-0.9952250123
28.73290067,6.091950417,-2.766000032,-4.734000206,0.1604624987,-1.529000044,-2.065387487
28.75290067,6.091950417,-2.766000032,-4.734000206,0.1604624987,-1.529000044,-2.065387487
28.77290067,6.091950417,-2.766000032,-4.734000206,0.1604624987,-1.529000044,-2.065387487
28.79290067,6.091950417,-2.766000032,-4.734000206,0.1604624987,-1.529000044,-2.065387487
28.81290067,6.091950417,-2.766000032,-4.734000206,0.1604624987,-1.529000044,-2.065387487
28.83290067,-3.346950054,-24.53895187,-2.473950148,0.1604624987,-1.529000044,-2.065387487
28.85290067,-3.346950054,-24.53895187,-2.473950148,0.1604624987,-1.529000044,-2.065387487
28.87290067,-3.346950054,-24.53895187,-2.473950148,0.1604624987,-1.529000044,-2.065387487
28.89290067,-3.346950054,-24.53895187,-2.473950148,0.1604624987,-1.529000044,-2.065387487
28.91290067,-3.346950054,-24.53895187,-2.473950148,0.1604624987,-1.529000044,-2.065387487
28.93290067,1.707000136,-5.236050129,5.911950111,0.1604624987,-1.529000044,-2.065387487
28.95290067,1.707000136,-5.236050129,5.911950111,0.1604624987,-1.529000044,-2.065387487
28.97290067,3.085950136,-9.889950752,0.7609500289,1.061224937,2.856425047,1.87440002
28.99290067,3.085950136,-9.889950752,0.7609500289,1.061224937,2.856425047,1.87440002
29.01290067,3.085950136,-9.889950752,0.7609500289,1.007462502,2.794825077,1.052287459
29.03290067,3.085950136,-9.889950752,0.7609500289,1.007462502,2.794825077,1.052287459
29.05290067,3.085950136,-9.889950752,0.7609500289,1.007462502,2.794825077,1.052287459
29.07290067,10.51605034,-8.166000366,-0.04200000316,0.04042499885,2.001037598,-1.041562438
29.09290067,10.51605034,-8.166000366,-0.04200000316,0.04042499885,2.001037598,-1.041562438
29.11290067,10.51605034,-8.166000366,-0.04200000316,0.04042499885,2.001037598,-1.041562438
29.13290067,10.51605034,-8.166000366,-0.04200000316,0.04042499885,2.001037598,-1.041562438
29.15290067,10.51605034,-8.166000366,-0.04200000316,0.04042499885,2.001037598,-1.041562438
29.17290067,5.556000233,-12.72405052,-1.171950102,0.04042499885,2.001037598,-1.041562438
29.19290067,5.556000233,-12.72405052,-1.171950102,0.04042499885,2.001037598,-1.041562438
29.21290067,0.2140500098,-18.29594994,-10.45905018,-2.458912373,2.407074928,-1.132587552
29.23290067,0.2140500098,-18.29594994,-10.45905018,-2.458912373,2.407074928,-1.132587552
29.25290067,0.2140500098,-18.29594994,-10.45905018,-2.458912373,2.407074928,-1.132587552
29.27290067,0.2140500098,-18.29594994,-10.45905018,-2.458912373,2.407074928,-1.132587552
29.29290067,0.2140500098,-18.29594994,-10.45905018,-2.458912373,2.407074928,-1.132587552
29.31290067,0.2140500098,-18.29594994,-10.45905018,-3.440112591,4.338399887,3.227262497
29.33290067,0.2140500098,-18.29594994,-10.45905018,-3.440112591,4.338399887,3.227262497
29.35290067,0.2140500098,-18.29594994,-10.45905018,-2.403224945,2.634087563,3.800225019
29.37290067,0.2140500098,-18.29594994,-10.45905018,-2.403224945,2.634087563,3.800225019
29.39290067,0.2140500098,-18.29594994,-10.45905018,-0.2505249977,1.152937531,3.44904995
29.41290067,-0.6660000086,-23.69595146,9.85695076,-0.2505249977,1.152937531,3.44904995
29.43290067,-0.6660000086,-23.69595146,9.85695076,-0.2505249977,1.152937531,3.44904995
29.45290067,3.718050241,-24.06000137,11.90595055,1.650962472,1.033862472,1.972712517
29.47290067,3.718050241,-24.06000137,11.90595055,1.650962472,1.033862472,1.972712517
29.49290067,3.718050241,-24.06000137,11.90595055,1.650962472,1.033862472,1.972712517
29.51290067,3.718050241,-24.06000137,11.90595055,1.650962472,1.033862472,1.972712517
29.53290067,3.718050241,-24.06000137,11.90595055,1.650962472,1.033862472,1.972712517
29.55290067,2.550000191,-5.428050041,-0.9040500522,3.262599945,0.7226999998,-0.1606000066
29.57290067,2.550000191,-5.428050041,-0.9040500522,3.262599945,0.7226999998,-0.1606000066
29.59290067,2.550000191,-5.428050041,-0.9040500522,3.262599945,0.7226999998,-0.1606000066
29.61290067,2.550000191,-5.428050041,-0.9040500522,3.262599945,0.7226999998,-0.1606000066
29.63290067,2.550000191,-5.428050041,-0.9040500522,3.262599945,0.7226999998,-0.1606000066
29.65290067,2.550000191,-5.428050041,-0.9040500522,3.262599945,0.7226999998,-0.1606000066
29.67290067,2.550000191,-5.428050041,-0.9040500522,3.262599945,0.7226999998,-0.1606000066
29.69290067,2.550000191,-5.428050041,-0.9040500522,-2.465374947,3.134037495,-3.208425045
29.71290067,2.550000191,-5.428050041,-0.9040500522,-2.465374947,3.134037495,-3.208425045
29.73290067,2.550000191,-5.428050041,-0.9040500522,-4.977637291,4.848662376,-1.130800009
29.75290067,2.550000191,-5.428050041,-0.9040500522,-4.977637291,4.848662376,-1.130800009
29.77290067,2.550000191,-5.428050041,-0.9040500522,-4.977637291,4.848662376,-1.130800009
29.79290067,-6.085950375,-12.72405052,-7.58700037,-3.393912554,1.515937448,1.295799971
29.81290067,-6.085950375,-12.72405052,-7.58700037,-3.393912554,1.515937448,1.295799971
29.83290067,-1.201950073,-7.86000061,6.793050289,-3.393912554,1.515937448,1.295799971
29.85290067,-1.201950073,-7.86000061,6.793050289,-3.393912554,1.515937448,1.295799971
29.87290067,-1.201950073,-7.86000061,6.793050289,-3.393912554,1.515937448,1.295799971
29.89290067,2.856000185,-16.36200142,6.391050339,2.106912374,-3.05648756,1.419549942
29.91290067,2.856000185,-16.36200142,6.391050339,2.106912374,-3.05648756,1.419549942
29.93290067,2.856000185,-16.36200142,6.391050339,2.106912374,-3.05648756,1.419549942
29.95290067,2.856000185,-16.36200142,6.391050339,2.106912374,-3.05648756,1.419549942
29.97290067,2.856000185,-16.36200142,6.391050339,2.106912374,-3.05648756,1.419549942
29.99290067,6.399000168,-14.8879509,-0.5590500236,2.106912374,-3.05648756,1.419549942
30.01290067,6.399000168,-14.8879509,-0.5590500236,2.106912374,-3.05648756,1.419549942
30.03290067,6.399000168,-14.8879509,-0.5590500236,1.017225027,0.8901749849,-2.135099888
30.05290067,6.399000168,-14.8879509,-0.5590500236,1.017225027,0.8901749849,-2.135099888
30.07290067,6.399000168,-14.8879509,-0.5590500236,-0.6345624924,4.569262505,-2.482150078
30.09290067,6.399000168,-14.8879509,-0.5590500236,-0.6345624924,4.569262505,-2.482150078
30.11290067,6.399000168,-14.8879509,-0.5590500236,-0.6345624924,4.569262505,-2.482150078
30.13290067,-4.305000305,-8.664000511,-5.959050179,-2.283874989,4.962924957,-0.8546999693
30.15290067,-4.305000305,-8.664000511,-5.959050179,-2.283874989,4.962924957,-0.8546999693
30.17290067,-13.47705078,-0.7360500097,-6.706050396,-2.470050097,2.541137457,0.9065374732
30.19290067,-13.47705078,-0.7360500097,-6.706050396,-2.470050097,2.541137457,0.9065374732
30.21290067,-13.47705078,-0.7360500097,-6.706050396,-2.470050097,2.541137457,0.9065374732
30.23290067,-14.72205067,1.905000091,-0.3870000243,-2.470050097,2.541137457,0.9065374732
30.25290067,-14.72205067,1.905000091,-0.3870000243,-2.470050097,2.541137457,0.9065374732
30.27290067,-2.044950008,-3.168000221,5.740050316,-1.685474992,-1.317937493,4.954675198
30.29290067,-2.044950008,-3.168000221,5.740050316,-1.685474992,-1.317937493,4.954675198
30.31290067,-2.044950008,-3.168000221,5.740050316,0.8123499751,-2.132487535,5.911399841
30.33290067,-2.044950008,-3.168000221,5.740050316,0.8123499751,-2.132487535,5.911399841
30.35290067,-2.044950008,-3.168000221,5.740050316,0.8123499751,-2.132487535,5.911399841
30.37290067,1.975050092,-39.07305145,-5.824950218,0.8841249943,-2.13427496,0.8457624912
30.39290067,1.975050092,-39.07305145,-5.824950218,0.8841249943,-2.13427496,0.8457624912
30.41290067,1.975050092,-39.07305145,-5.824950218,1.38380003,-1.346675038,-2.262974977
30.43290067,1.975050092,-39.07305145,-5.824950218,1.38380003,-1.346675038,-2.262974977
30.45290067,1.975050092,-39.07305145,-5.824950218,1.38380003,-1.346675038,-2.262974977
30.47290067,4.12005043,-1.483050108,0.646050036,1.38380003,-1.346675038,-2.262974977
30.49290067,4.12005043,-1.483050108,0.646050036,1.38380003,-1.346675038,-2.262974977
30.51290067,5.403000355,2.977950096,-3.393000126,1.294975042,6.594087601,-3.711124897
30.53290067,5.403000355,2.977950096,-3.393000126,1.294975042,6.594087601,-3.711124897
30.55290067,5.403000355,2.977950096,-3.393000126,1.294975042,6.594087601,-3.711124897
30.57290067,5.403000355,2.977950096,-3.393000126,1.294975042,6.594087601,-3.711124897
30.59290067,5.403000355,2.977950096,-3.393000126,1.294975042,6.594087601,-3.711124897
30.61290067,2.703000069,-3.301950216,-2.818950176,-2.654574871,5.502474785,-2.798399925
30.63290067,2.703000069,-3.301950216,-2.818950176,-2.654574871,5.502474785,-2.798399925
30.65290067,2.703000069,-3.301950216,-2.818950176,-6.05838728,3.598237514,-6.94938755
30.67290067,2.703000069,-3.301950216,-2.818950176,-6.05838728,3.598237514,-6.94938755
30.69290067,2.703000069,-3.301950216,-2.818950176,-6.05838728,3.598237514,-6.94938755
30.71290067,-0.7050000429,-35.12805176,7.59705019,-6.05838728,3.598237514,-6.94938755
30.73290067,-0.7050000429,-35.12805176,7.59705019,-6.05838728,3.598237514,-6.94938755
30.75290067,-0.7050000429,-35.12805176,7.59705019,2.710537434,0.1857624948,1.869174957
30.77290067,-0.7050000429,-35.12805176,7.59705019,2.710537434,0.1857624948,1.869174957
30.79290067,-0.7050000429,-35.12805176,7.59705019,2.710537434,0.1857624948,1.869174957
30.81290067,-0.7050000429,-35.12805176,7.59705019,2.710537434,0.1857624948,1.869174957
30.83290067,-0.7050000429,-35.12805176,7.59705019,2.710537434,0.1857624948,1.869174957
30.85290067,-8.115000725,-2.593950033,-7.395000458,2.12135005,-2.455337524,1.759862542
30.87290067,-8.115000725,-2.593950033,-7.395000458,2.12135005,-2.455337524,1.759862542
30.89290067,-13.42005062,0.8329500556,-9.138000488,2.12135005,-2.455337524,1.759862542
30.91290067,-13.42005062,0.8329500556,-9.138000488,2.12135005,-2.455337524,1.759862542
30.93290067,-13.42005062,0.8329500556,-9.138000488,2.12135005,-2.455337524,1.759862542
30.95290067,-13.42005062,0.8329500556,-9.138000488,2.12135005,-2.455337524,1.759862542
30.97290067,-13.42005062,0.8329500556,-9.138000488,2.12135005,-2.455337524,1.759862542
30.99290067,-13.42005062,0.8329500556,-9.138000488,-4.823912621,-1.724937439,3.175562382
31.01290067,-13.42005062,0.8329500556,-9.138000488,-4.823912621,-1.724937439,3.175562382
31.03290067,-13.42005062,0.8329500556,-9.138000488,-1.550724983,-0.9602999687,0.02172499895
31.05290067,4.369050026,-38.05800247,17.2099514,-1.550724983,-0.9602999687,0.02172499895
31.07290067,4.369050026,-38.05800247,17.2099514,-1.550724983,-0.9602999687,0.02172499895
31.09290067,3.277050257,-11.2680006,2.005950212,4.373875141,-3.806687593,-0.5919374824
31.11290067,3.277050257,-11.2680006,2.005950212,4.373875141,-3.806687593,-0.5919374824
31.13290067,3.277050257,-11.2680006,2.005950212,4.373875141,-3.806687593,-0.5919374824
31.15290067,3.277050257,-11.2680006,2.005950212,4.373875141,-3.806687593,-0.5919374824
31.17290067,3.277050257,-11.2680006,2.005950212,4.373875141,-3.806687593,-0.5919374824
31.19290067,-1.08795011,-2.019000053,-4.849050045,2.031562567,3.663137436,-3.544062376
31.21290067,-1.08795011,-2.019000053,-4.849050045,2.031562567,3.663137436,-3.544062376
31.23290067,-2.638950109,-5.256000042,-2.971950054,1.302124977,2.98952508,-2.443924904
31.25290067,-2.638950109,-5.256000042,-2.971950054,1.302124977,2.98952508,-2.443924904
31.27290067,-2.638950109,-5.256000042,-2.971950054,1.302124977,2.98952508,-2.443924904
31.29290067,0.3090000153,-8.43405056,-1.746000051,1.302124977,2.98952508,-2.443924904
31.31290067,0.3090000153,-8.43405056,-1.746000051,1.302124977,2.98952508,-2.443924904
31.33290067,3.948000193,-19.17705154,-0.6169500351,-7.445624828,1.562962532,-0.1322750002
31.35290067,3.948000193,-19.17705154,-0.6169500351,-7.445624828,1.562962532,-0.1322750002
31.37290067,3.948000193,-19.17705154,-0.6169500351,-2.89753747,0.2120250016,-0.5623750091
31.39290067,3.948000193,-19.17705154,-0.6169500351,-2.89753747,0.2120250016,-0.5623750091
31.41290067,3.948000193,-19.17705154,-0.6169500351,-2.89753747,0.2120250016,-0.5623750091
31.43290067,4.867050171,-9.162000656,1.660950065,1.538349986,-1.014887452,-0.5619624853
31.45290067,4.867050171,-9.162000656,1.660950065,1.538349986,-1.014887452,-0.5619624853
31.47290067,4.867050171,-9.162000656,1.660950065,1.538349986,-1.014887452,-0.5619624853
31.49290067,4.867050171,-9.162000656,1.660950065,1.538349986,-1.014887452,-0.5619624853
31.51290067,4.867050171,-9.162000656,1.660950065,1.538349986,-1.014887452,-0.5619624853
31.53290067,2.473050117,-9.258000374,-0.4830000103,1.538349986,-1.014887452,-0.5619624853
31.55290067,2.473050117,-9.258000374,-0.4830000103,1.538349986,-1.014887452,-0.5619624853
31.57290067,0.1750500053,-10.27305031,-0.1950000077,0.6382749677,0.6155874729,-1.044450045
31.59290067,0.1750500053,-10.27305031,-0.1950000077,0.6382749677,0.6155874729,-1.044450045
31.61290067,0.1750500053,-10.27305031,-0.1950000077,0.6382749677,0.6155874729,-1.044450045
31.63290067,0.1750500053,-10.27305031,-0.1950000077,0.6382749677,0.6155874729,-1.044450045
31.65290067,0.1750500053,-10.27305031,-0.1950000077,0.6382749677,0.6155874729,-1.044450045
31.67290067,-2.734050035,-11.36400032,-0.2140500098,-1.811562538,-1.440037489,1.009662509
31.69290067,-2.734050035,-11.36400032,-0.2140500098,-1.811562538,-1.440037489,1.009662509
31.71290067,-2.734050035,-11.36400032,-0.2140500098,-1.02176249,-2.370912552,2.037062407
31.73290067,-2.734050035,-11.36400032,-0.2140500098,-1.02176249,-2.370912552,2.037062407
31.75290067,-2.734050035,-11.36400032,-0.2140500098,-1.02176249,-2.370912552,2.037062407
31.77290067,-2.907000065,-6.385050297,0.3589500189,-1.02176249,-2.370912552,2.037062407
31.79290067,-2.907000065,-6.385050297,0.3589500189,-1.02176249,-2.370912552,2.037062407
31.81290067,2.071050167,-20.05800056,-4.522950172,-0.287787497,-2.086012602,2.141837597
31.83290067,2.071050167,-20.05800056,-4.522950172,-0.287787497,-2.086012602,2.141837597
31.85290067,2.071050167,-20.05800056,-4.522950172,-0.287787497,-2.086012602,2.141837597
31.87290067,6.399000168,-24.53895187,-1.153050065,-0.287787497,-2.086012602,2.141837597
31.89290067,6.399000168,-24.53895187,-1.153050065,-0.287787497,-2.086012602,2.141837597
31.91290067,6.399000168,-24.53895187,-1.153050065,-0.287787497,-2.086012602,2.141837597
31.93290067,6.399000168,-24.53895187,-1.153050065,-0.287787497,-2.086012602,2.141837597
31.95290067,2.703000069,-4.873050213,9.972000122,1.64298749,-0.4873000085,-1.235574961
31.97290067,2.703000069,-4.873050213,9.972000122,1.64298749,-0.4873000085,-1.235574961
31.99290067,2.703000069,-4.873050213,9.972000122,1.64298749,-0.4873000085,-1.235574961
32.01290067,6.322050095,-6.079050064,0.07200000435,0.9263374805,0.7052375078,-1.918125033
32.03290067,6.322050095,-6.079050064,0.07200000435,0.9263374805,0.7052375078,-1.918125033
32.05290067,6.322050095,-6.079050064,0.07200000435,0.3125374913,2.822462559,-2.745462418
32.07290067,6.322050095,-6.079050064,0.07200000435,0.3125374913,2.822462559,-2.745462418
32.09290067,6.322050095,-6.079050064,0.07200000435,0.8945749998,2.089312553,-2.068825006
32.11290067,-7.809000492,-11.47905064,-5.767950058,0.8945749998,2.089312553,-2.068825006
32.13290067,-7.809000492,-11.47905064,-5.767950058,0.8945749998,2.089312553,-2.068825006
32.15290067,-8.422050476,-19.21500015,-5.212050438,0.3497999907,-3.425812483,2.608099937
32.17290067,-8.422050476,-19.21500015,-5.212050438,0.3497999907,-3.425812483,2.608099937
32.19290067,-8.422050476,-19.21500015,-5.212050438,0.3497999907,-3.425812483,2.608099937
32.21290067,-8.422050476,-19.21500015,-5.212050438,0.3497999907,-3.425812483,2.608099937
32.23290067,-8.422050476,-19.21500015,-5.212050438,0.3497999907,-3.425812483,2.608099937
32.25290067,3.411000252,-10.33005047,1.144050002,0.0543125011,-2.311374903,1.851300001
32.27290067,3.411000252,-10.33005047,1.144050002,0.0543125011,-2.311374903,1.851300001
32.29290067,3.411000252,-10.33005047,1.144050002,0.0543125011,-2.311374903,1.851300001
32.31290067,3.411000252,-10.33005047,1.144050002,0.0543125011,-2.311374903,1.851300001
32.33290067,3.411000252,-10.33005047,1.144050002,0.0543125011,-2.311374903,1.851300001
32.35290067,5.748000145,-10.40700054,-1.842000127,0.0543125011,-2.311374903,1.851300001
