"Time (s)","Acceleration x (m/s^2)","Acceleration y (m/s^2)","Acceleration z (m/s^2)"
2.114661100E-2,-7.810500264E-1,1.981950045E0,9.493050575E0
4.578401000E-2,9.900000691E-2,1.809000134E0,1.041195011E1
6.178401200E-2,-1.110000089E-1,1.636950135E0,1.047000027E1
7.782037000E-2,-3.600000143E-1,1.522050023E0,1.016295052E1
8.178401200E-2,0.000000000E0,0.000000000E0,0.000000000E0
9.782037000E-2,-6.660000086E-1,1.312050104E0,9.646050453E0
1.378203700E-1,-6.660000086E-1,1.312050104E0,9.646050453E0
1.578203700E-1,-6.660000086E-1,1.312050104E0,9.646050453E0
1.778203700E-1,-6.660000086E-1,1.312050104E0,9.646050453E0
1.978203700E-1,1.687950134E0,2.779500186E-1,1.047000027E1
2.178203700E-1,1.687950134E0,2.779500186E-1,1.047000027E1
2.378203700E-1,8.839500546E-1,1.240500063E-1,8.554950714E0
2.578203700E-1,8.839500546E-1,1.240500063E-1,8.554950714E0
2.778203700E-1,8.839500546E-1,1.240500063E-1,8.554950714E0
2.978203700E-1,3.775050163E0,4.800000042E-2,1.060395050E1
3.178203700E-1,3.775050163E0,4.800000042E-2,1.060395050E1
3.378203700E-1,3.775050163E0,4.800000042E-2,1.060395050E1
3.578203700E-1,3.775050163E0,4.800000042E-2,1.060395050E1
3.778203700E-1,3.775050163E0,4.800000042E-2,1.060395050E1
3.978203700E-1,2.128050089E0,1.063050032E0,7.789050579E0
4.178203700E-1,2.128050089E0,1.063050032E0,7.789050579E0
4.378203700E-1,1.362000108E0,3.540000021E-1,7.119000435E0
4.578203700E-1,1.362000108E0,3.540000021E-1,7.119000435E0
4.778203700E-1,1.362000108E0,3.540000021E-1,7.119000435E0
4.978203700E-1,1.362000108E0,3.540000021E-1,7.119000435E0
5.178203700E-1,1.362000108E0,3.540000021E-1,7.119000435E0
5.378203700E-1,2.242950201E0,-1.464000106E0,1.138905048E1
5.578203700E-1,2.242950201E0,-1.464000106E0,1.138905048E1
5.778203700E-1,2.242950201E0,-1.464000106E0,1.138905048E1
5.978203700E-1,2.242950201E0,-1.464000106E0,1.138905048E1
6.178203700E-1,2.242950201E0,-1.464000106E0,1.138905048E1
6.378203700E-1,1.248000026E0,-1.429500133E-1,9.436050415E0
6.578203700E-1,1.248000026E0,-1.429500133E-1,9.436050415E0
6.778203700E-1,1.669050097E0,-2.380500138E-1,8.746050835E0
6.978203700E-1,1.669050097E0,-2.380500138E-1,8.746050835E0
7.178203700E-1,1.669050097E0,-2.380500138E-1,8.746050835E0
7.378203700E-1,1.669050097E0,-2.380500138E-1,8.746050835E0
7.578203700E-1,1.669050097E0,-2.380500138E-1,8.746050835E0
7.778203700E-1,3.622050285E0,-1.750950098E0,7.750950336E0
7.978203700E-1,3.622050285E0,-1.750950098E0,7.750950336E0
8.178203700E-1,4.369050026E0,-2.230050087E0,7.980000496E0
8.378203700E-1,4.369050026E0,-2.230050087E0,7.980000496E0
8.578203700E-1,4.369050026E0,-2.230050087E0,7.980000496E0
8.778203700E-1,7.356000423E0,-2.824050188E0,9.244050026E0
8.978203700E-1,7.356000423E0,-2.824050188E0,9.244050026E0
9.178203700E-1,7.356000423E0,-2.824050188E0,9.244050026E0
9.378203700E-1,7.356000423E0,-2.824050188E0,9.244050026E0
9.578203700E-1,7.356000423E0,-2.824050188E0,9.244050026E0
9.778203700E-1,7.356000423E0,-2.824050188E0,9.244050026E0
9.978203700E-1,7.356000423E0,-2.824050188E0,9.244050026E0
1.017820370E0,7.318050385E0,-2.364000082E0,1.110195065E1
1.037820370E0,7.318050385E0,-2.364000082E0,1.110195065E1
1.057820370E0,7.318050385E0,-2.364000082E0,1.110195065E1
1.077820370E0,7.318050385E0,-2.364000082E0,1.110195065E1
1.097820370E0,7.318050385E0,-2.364000082E0,1.110195065E1
1.117820370E0,3.450000048E0,-2.938950062E0,8.956950188E0
1.137820370E0,3.450000048E0,-2.938950062E0,8.956950188E0
1.157820370E0,3.450000048E0,-2.938950062E0,8.956950188E0
1.177820370E0,3.450000048E0,-2.938950062E0,8.956950188E0
1.197820370E0,3.450000048E0,-2.938950062E0,8.956950188E0
1.217820370E0,2.377050161E0,-3.283050060E0,8.611950874E0
1.237820370E0,2.377050161E0,-3.283050060E0,8.611950874E0
1.257820370E0,2.893950224E0,-2.728050232E0,8.325000763E0
1.277820370E0,2.893950224E0,-2.728050232E0,8.325000763E0
1.297820370E0,2.893950224E0,-2.728050232E0,8.325000763E0
1.317820370E0,2.893950224E0,-2.728050232E0,8.325000763E0
1.337820370E0,2.893950224E0,-2.728050232E0,8.325000763E0
1.357820370E0,3.852000237E0,-3.111000061E0,8.938050270E0
1.377820370E0,3.852000237E0,-3.111000061E0,8.938050270E0
1.397820370E0,3.852000237E0,-3.111000061E0,8.938050270E0
1.417820370E0,3.852000237E0,-3.111000061E0,8.938050270E0
1.437820370E0,3.852000237E0,-3.111000061E0,8.938050270E0
1.457820370E0,3.832950115E0,-3.436050177E0,8.554950714E0
1.477820370E0,3.832950115E0,-3.436050177E0,8.554950714E0
1.497820370E0,4.273050308E0,-3.493950129E0,8.305950165E0
1.517820370E0,4.273050308E0,-3.493950129E0,8.305950165E0
1.537820370E0,4.273050308E0,-3.493950129E0,8.305950165E0
1.557820370E0,4.273050308E0,-3.493950129E0,8.305950165E0
1.577820370E0,4.273050308E0,-3.493950129E0,8.305950165E0
1.597820370E0,4.273050308E0,-3.493950129E0,8.305950165E0
1.617820370E0,4.273050308E0,-3.493950129E0,8.305950165E0
1.637820370E0,4.924050331E0,-3.724050283E0,8.421000481E0
1.657820370E0,4.924050331E0,-3.724050283E0,8.421000481E0
1.677820370E0,4.924050331E0,-3.724050283E0,8.421000481E0
1.697820370E0,5.307000160E0,-3.570000172E0,8.362950325E0
1.717820370E0,5.307000160E0,-3.570000172E0,8.362950325E0
1.737820370E0,5.307000160E0,-3.570000172E0,8.362950325E0
1.757820370E0,5.307000160E0,-3.570000172E0,8.362950325E0
1.777820370E0,5.307000160E0,-3.570000172E0,8.362950325E0
1.797820370E0,5.307000160E0,-3.570000172E0,8.362950325E0
1.817820370E0,5.307000160E0,-3.570000172E0,8.362950325E0
1.837820370E0,4.522050381E0,-4.528050423E0,8.401950836E0
1.857820370E0,4.522050381E0,-4.528050423E0,8.401950836E0
1.877820370E0,4.522050381E0,-4.528050423E0,8.401950836E0
1.897820370E0,4.522050381E0,-4.528050423E0,8.401950836E0
1.917820370E0,4.522050381E0,-4.528050423E0,8.401950836E0
1.937820370E0,6.207000256E0,-4.891950130E0,6.409950256E0
1.957820370E0,6.207000256E0,-4.891950130E0,6.409950256E0
1.977820370E0,6.207000256E0,-4.891950130E0,6.409950256E0
1.997820370E0,6.207000256E0,-4.891950130E0,6.409950256E0
2.017820370E0,6.207000256E0,-4.891950130E0,6.409950256E0
2.037820370E0,9.691950798E0,-5.658000469E0,4.668000221E0
2.057820370E0,9.691950798E0,-5.658000469E0,4.668000221E0
2.077820370E0,6.685950279E0,-5.350950241E0,5.413950443E0
2.097820370E0,6.685950279E0,-5.350950241E0,5.413950443E0
2.117820370E0,6.685950279E0,-5.350950241E0,5.413950443E0
2.137820370E0,6.685950279E0,-5.350950241E0,5.413950443E0
2.157820370E0,6.685950279E0,-5.350950241E0,5.413950443E0
2.177820370E0,7.030950546E0,-6.652950287E0,3.097050190E0
2.197820370E0,7.030950546E0,-6.652950287E0,3.097050190E0
2.217820370E0,7.030950546E0,-6.652950287E0,3.097050190E0
2.237820370E0,7.030950546E0,-6.652950287E0,3.097050190E0
2.257820370E0,7.030950546E0,-6.652950287E0,3.097050190E0
2.277820370E0,1.026705074E1,-5.695950508E0,5.089050293E0
2.297820370E0,1.026705074E1,-5.695950508E0,5.089050293E0
2.317820370E0,5.958000183E0,-5.122050285E0,2.370000124E0
2.337820370E0,5.958000183E0,-5.122050285E0,2.370000124E0
2.357820370E0,5.958000183E0,-5.122050285E0,2.370000124E0
2.377820370E0,5.958000183E0,-5.122050285E0,2.370000124E0
2.397820370E0,5.958000183E0,-5.122050285E0,2.370000124E0
2.417820370E0,5.881950378E0,-4.260000229E0,2.809950113E0
2.437820370E0,5.881950378E0,-4.260000229E0,2.809950113E0
2.457820370E0,4.981950283E0,-4.585050106E0,2.599050045E0
2.477820370E0,4.981950283E0,-4.585050106E0,2.599050045E0
2.497820370E0,4.981950283E0,-4.585050106E0,2.599050045E0
2.517820370E0,8.581950188E0,-5.752950191E0,2.638050079E0
2.537820370E0,8.581950188E0,-5.752950191E0,2.638050079E0
2.557820370E0,8.581950188E0,-5.752950191E0,2.638050079E0
2.577820370E0,8.581950188E0,-5.752950191E0,2.638050079E0
2.597820370E0,8.581950188E0,-5.752950191E0,2.638050079E0
2.617820370E0,8.581950188E0,-5.752950191E0,2.638050079E0
2.637820370E0,8.581950188E0,-5.752950191E0,2.638050079E0
2.657820370E0,8.046000481E0,-7.305000305E0,4.930500090E-1
2.677820370E0,8.046000481E0,-7.305000305E0,4.930500090E-1
2.697820370E0,8.046000481E0,-7.305000305E0,4.930500090E-1
2.717820370E0,8.046000481E0,-7.305000305E0,4.930500090E-1
2.737820370E0,8.046000481E0,-7.305000305E0,4.930500090E-1
2.757820370E0,8.046000481E0,-7.305000305E0,4.930500090E-1
2.777820370E0,8.046000481E0,-7.305000305E0,4.930500090E-1
2.797820370E0,8.046000481E0,-7.305000305E0,4.930500090E-1
2.817820370E0,8.046000481E0,-7.305000305E0,4.930500090E-1
2.837820370E0,8.046000481E0,-7.305000305E0,4.930500090E-1
2.857820370E0,8.046000481E0,-7.305000305E0,4.930500090E-1
2.877820370E0,8.046000481E0,-7.305000305E0,4.930500090E-1
2.897820370E0,8.046000481E0,-7.305000305E0,4.930500090E-1
2.917820370E0,8.046000481E0,-7.305000305E0,4.930500090E-1
2.937820370E0,8.046000481E0,-7.305000305E0,4.930500090E-1
2.957820370E0,8.046000481E0,-7.305000305E0,4.930500090E-1
2.977820370E0,8.046000481E0,-7.305000305E0,4.930500090E-1
2.997820370E0,5.499000072E0,-7.036050320E0,2.523000002E0
3.017820370E0,5.499000072E0,-7.036050320E0,2.523000002E0
3.037820370E0,5.499000072E0,-7.036050320E0,2.523000002E0
3.057820370E0,5.499000072E0,-7.036050320E0,2.523000002E0
3.077820370E0,5.499000072E0,-7.036050320E0,2.523000002E0
3.097820370E0,3.181950092E0,-1.048305035E1,1.738050103E0
3.117820370E0,3.181950092E0,-1.048305035E1,1.738050103E0
3.137820370E0,2.989950180E0,-8.434050560E0,1.776000142E0
3.157820370E0,2.989950180E0,-8.434050560E0,1.776000142E0
3.177820370E0,2.989950180E0,-8.434050560E0,1.776000142E0
3.197820370E0,2.989950180E0,-8.434050560E0,1.776000142E0
3.217820370E0,2.989950180E0,-8.434050560E0,1.776000142E0
3.237820370E0,3.391950130E0,-4.911000252E0,1.699050069E0
3.257820370E0,3.391950130E0,-4.911000252E0,1.699050069E0
3.277820370E0,3.985950232E0,-7.975050449E0,2.695050240E0
3.297820370E0,3.985950232E0,-7.975050449E0,2.695050240E0
3.317820370E0,3.985950232E0,-7.975050449E0,2.695050240E0
3.337820370E0,2.665050030E0,-1.017705059E1,1.756950140E0
3.357820370E0,2.665050030E0,-1.017705059E1,1.756950140E0
3.377820370E0,2.665050030E0,-1.017705059E1,1.756950140E0
3.397820370E0,2.665050030E0,-1.017705059E1,1.756950140E0
3.417820370E0,2.665050030E0,-1.017705059E1,1.756950140E0
3.437820370E0,2.665050030E0,-1.017705059E1,1.756950140E0
3.457820370E0,2.665050030E0,-1.017705059E1,1.756950140E0
3.477820370E0,2.473050117E0,-9.334050179E0,2.101950169E0
3.497820370E0,2.473050117E0,-9.334050179E0,2.101950169E0
3.517820370E0,2.473050117E0,-9.334050179E0,2.101950169E0
3.537820370E0,2.473050117E0,-9.334050179E0,2.101950169E0
3.557820370E0,2.473050117E0,-9.334050179E0,2.101950169E0
3.577820370E0,2.473050117E0,-9.334050179E0,2.101950169E0
3.597820370E0,2.473050117E0,-9.334050179E0,2.101950169E0
3.617820370E0,2.301000118E0,-1.036800003E1,1.776000142E0
3.637820370E0,2.301000118E0,-1.036800003E1,1.776000142E0
3.657820370E0,2.301000118E0,-1.036800003E1,1.776000142E0
3.677820370E0,2.301000118E0,-1.036800003E1,1.776000142E0
3.697820370E0,2.301000118E0,-1.036800003E1,1.776000142E0
3.717820370E0,3.048000097E0,-1.017705059E1,2.158950090E0
3.737820370E0,3.048000097E0,-1.017705059E1,2.158950090E0
3.757820370E0,3.048000097E0,-1.017705059E1,2.158950090E0
3.777820370E0,3.048000097E0,-1.017705059E1,2.158950090E0
3.797820370E0,3.048000097E0,-1.017705059E1,2.158950090E0
3.817820370E0,2.569050074E0,-9.258000374E0,1.909950137E0
3.837820370E0,2.569050074E0,-9.258000374E0,1.909950137E0
3.857820370E0,2.569050074E0,-9.258000374E0,1.909950137E0
3.877820370E0,2.569050074E0,-9.258000374E0,1.909950137E0
3.897820370E0,2.569050074E0,-9.258000374E0,1.909950137E0
3.917820370E0,2.262000084E0,-8.548950195E0,-2.910000086E-1
3.937820370E0,2.262000084E0,-8.548950195E0,-2.910000086E-1
3.957820370E0,2.569050074E0,-1.105800056E1,4.740000367E-1
3.977820370E0,2.569050074E0,-1.105800056E1,4.740000367E-1
3.997820370E0,2.569050074E0,-1.105800056E1,4.740000367E-1
4.017820370E0,2.569050074E0,-1.105800056E1,4.740000367E-1
4.037820370E0,2.569050074E0,-1.105800056E1,4.740000367E-1
4.057820370E0,9.220500588E-1,-1.073205090E1,2.427000046E0
4.077820370E0,9.220500588E-1,-1.073205090E1,2.427000046E0
4.097820370E0,9.220500588E-1,-1.073205090E1,2.427000046E0
4.117820370E0,9.220500588E-1,-1.073205090E1,2.427000046E0
4.137820370E0,9.220500588E-1,-1.073205090E1,2.427000046E0
4.157820370E0,4.095000029E-2,-1.040700054E1,1.240050077E0
4.177820370E0,4.095000029E-2,-1.040700054E1,1.240050077E0
4.197820370E0,5.200500488E-1,-9.640950203E0,1.099500060E-1
4.217820370E0,5.200500488E-1,-9.640950203E0,1.099500060E-1
4.237820370E0,5.200500488E-1,-9.640950203E0,1.099500060E-1
4.257820370E0,5.200500488E-1,-9.640950203E0,1.099500060E-1
4.277820370E0,5.200500488E-1,-9.640950203E0,1.099500060E-1
4.297820370E0,3.090000153E-1,-9.085050583E0,1.099500060E-1
4.317820370E0,3.090000153E-1,-9.085050583E0,1.099500060E-1
4.337820370E0,3.090000153E-1,-9.085050583E0,1.099500060E-1
4.357820370E0,3.090000153E-1,-9.085050583E0,1.099500060E-1
4.377820370E0,3.090000153E-1,-9.085050583E0,1.099500060E-1
4.397820370E0,-1.087950110E0,-1.080900097E1,8.190000653E-1
4.417820370E0,-1.087950110E0,-1.080900097E1,8.190000653E-1
4.437820370E0,8.070000410E-1,-1.157505035E1,1.240050077E0
4.457820370E0,8.070000410E-1,-1.157505035E1,1.240050077E0
4.477820370E0,8.070000410E-1,-1.157505035E1,1.240050077E0
4.497820370E0,8.070000410E-1,-1.157505035E1,1.240050077E0
4.517820370E0,8.070000410E-1,-1.157505035E1,1.240050077E0
4.537820370E0,1.369500011E-1,-9.487950325E0,-1.153050065E0
4.557820370E0,1.369500011E-1,-9.487950325E0,-1.153050065E0
4.577820370E0,1.369500011E-1,-9.487950325E0,-1.153050065E0
4.597820370E0,1.369500011E-1,-9.487950325E0,-1.153050065E0
4.617820370E0,1.369500011E-1,-9.487950325E0,-1.153050065E0
4.637820370E0,6.000000238E-2,-9.448950768E0,1.623000026E0
4.657820370E0,6.000000238E-2,-9.448950768E0,1.623000026E0
4.677820370E0,-7.620000243E-1,-9.277050018E0,1.029000044E0
4.697820370E0,-7.620000243E-1,-9.277050018E0,1.029000044E0
4.717820370E0,-7.620000243E-1,-9.277050018E0,1.029000044E0
4.737820370E0,-1.030050039E0,-9.640950203E0,2.446050167E0
4.757820370E0,-1.030050039E0,-9.640950203E0,2.446050167E0
4.777820370E0,-7.240500450E-1,-9.142950058E0,2.772000074E0
4.797820370E0,-7.240500450E-1,-9.142950058E0,2.772000074E0
4.817820370E0,9.900000691E-2,-9.181050301E0,3.174000263E0
4.837820370E0,9.900000691E-2,-9.181050301E0,3.174000263E0
4.857820370E0,9.900000691E-2,-9.181050301E0,3.174000263E0
4.877820370E0,2.358000040E0,-1.092405033E1,2.407950163E0
4.897820370E0,2.358000040E0,-1.092405033E1,2.407950163E0
4.917820370E0,2.358000040E0,-1.092405033E1,2.407950163E0
4.937820370E0,2.358000040E0,-1.092405033E1,2.407950163E0
4.957820370E0,2.358000040E0,-1.092405033E1,2.407950163E0
4.977820370E0,2.416050196E0,-1.527105045E1,1.240050077E0
4.997820370E0,2.416050196E0,-1.527105045E1,1.240050077E0
5.017820370E0,2.683950186E0,-1.578795052E1,1.125000000E0
5.037820370E0,2.683950186E0,-1.578795052E1,1.125000000E0
5.057820370E0,2.683950186E0,-1.578795052E1,1.125000000E0
5.077820370E0,2.683950186E0,-1.578795052E1,1.125000000E0
5.097820370E0,2.683950186E0,-1.578795052E1,1.125000000E0
5.117820370E0,2.587950230E0,-1.222605038E1,-1.746000051E0
5.137820370E0,2.587950230E0,-1.222605038E1,-1.746000051E0
5.157820370E0,-9.730500579E-1,-1.463895035E1,4.782000065E0
5.177820370E0,-9.730500579E-1,-1.463895035E1,4.782000065E0
5.197820370E0,-9.730500579E-1,-1.463895035E1,4.782000065E0
5.217820370E0,6.160500050E-1,-1.348995018E1,3.270000219E0
5.237820370E0,6.160500050E-1,-1.348995018E1,3.270000219E0
5.257820370E0,2.607000113E0,-1.000500011E1,-1.383000016E0
5.277820370E0,2.607000113E0,-1.000500011E1,-1.383000016E0
5.297820370E0,2.607000113E0,-1.000500011E1,-1.383000016E0
5.317820370E0,2.607000113E0,-1.000500011E1,-1.383000016E0
5.337820370E0,2.607000113E0,-1.000500011E1,-1.383000016E0
5.357820370E0,5.881950378E0,-4.948950291E0,1.870500147E-1
5.377820370E0,5.881950378E0,-4.948950291E0,1.870500147E-1
5.397820370E0,5.881950378E0,-4.948950291E0,1.870500147E-1
5.417820370E0,5.881950378E0,-4.948950291E0,1.870500147E-1
5.437820370E0,5.881950378E0,-4.948950291E0,1.870500147E-1
5.457820370E0,5.770500302E-1,-5.446950436E0,6.270000339E-1
5.477820370E0,5.770500302E-1,-5.446950436E0,6.270000339E-1
5.497820370E0,3.480000198E-1,-3.703950167E0,-4.060500264E-1
5.517820370E0,3.480000198E-1,-3.703950167E0,-4.060500264E-1
5.537820370E0,3.480000198E-1,-3.703950167E0,-4.060500264E-1
5.557820370E0,1.458000064E0,-4.048950195E0,-2.473950148E0
5.577820370E0,1.458000064E0,-4.048950195E0,-2.473950148E0
5.597820370E0,1.458000064E0,-4.048950195E0,-2.473950148E0
5.617820370E0,1.458000064E0,-4.048950195E0,-2.473950148E0
5.637820370E0,1.458000064E0,-4.048950195E0,-2.473950148E0
5.657820370E0,1.458000064E0,-4.048950195E0,-2.473950148E0
5.677820370E0,1.458000064E0,-4.048950195E0,-2.473950148E0
5.697820370E0,4.656000137E0,-1.092405033E1,-7.995000482E-2
5.717820370E0,4.656000137E0,-1.092405033E1,-7.995000482E-2
5.737820370E0,2.338950157E0,-1.094295025E1,3.231000185E0
5.757820370E0,2.338950157E0,-1.094295025E1,3.231000185E0
5.777820370E0,2.338950157E0,-1.094295025E1,3.231000185E0
5.797820370E0,1.956000090E0,-1.128795052E1,2.350950003E0
5.817820370E0,1.956000090E0,-1.128795052E1,2.350950003E0
5.837820370E0,3.603000164E0,-8.146950722E0,-1.785000086E0
5.857820370E0,3.603000164E0,-8.146950722E0,-1.785000086E0
5.877820370E0,3.603000164E0,-8.146950722E0,-1.785000086E0
5.897820370E0,3.603000164E0,-8.146950722E0,-1.785000086E0
5.917820370E0,3.603000164E0,-8.146950722E0,-1.785000086E0
5.937820370E0,2.377050161E0,-7.936050415E0,-7.995000482E-2
5.957820370E0,2.377050161E0,-7.936050415E0,-7.995000482E-2
5.977820370E0,2.377050161E0,-7.936050415E0,-7.995000482E-2
5.997820370E0,2.377050161E0,-7.936050415E0,-7.995000482E-2
6.017820370E0,2.377050161E0,-7.936050415E0,-7.995000482E-2
6.037820370E0,3.124050140E0,-1.004295063E1,-3.100500107E-1
6.057820370E0,3.124050140E0,-1.004295063E1,-3.100500107E-1
6.077820370E0,1.993950129E0,-1.155600071E1,1.395000052E-2
6.097820370E0,1.993950129E0,-1.155600071E1,1.395000052E-2
6.117820370E0,1.993950129E0,-1.155600071E1,1.395000052E-2
6.137820370E0,1.993950129E0,-1.155600071E1,1.395000052E-2
6.157820370E0,1.993950129E0,-1.155600071E1,1.395000052E-2
6.177820370E0,3.316050053E0,-1.347105026E1,8.569500446E-1
6.197820370E0,3.316050053E0,-1.347105026E1,8.569500446E-1
6.217820370E0,3.316050053E0,-1.347105026E1,8.569500446E-1
6.237820370E0,3.316050053E0,-1.347105026E1,8.569500446E-1
6.257820370E0,3.316050053E0,-1.347105026E1,8.569500446E-1
6.277820370E0,3.142950058E0,-1.157505035E1,-8.008049965E0
6.297820370E0,3.142950058E0,-1.157505035E1,-8.008049965E0
6.317820370E0,5.977050304E0,-1.193895054E1,3.442050219E0
6.337820370E0,5.977050304E0,-1.193895054E1,3.442050219E0
6.357820370E0,5.977050304E0,-1.193895054E1,3.442050219E0
6.377820370E0,2.971050024E0,-1.167105103E1,4.207950115E0
6.397820370E0,2.971050024E0,-1.167105103E1,4.207950115E0
6.417820370E0,3.622050285E0,-1.023405075E1,-2.149049997E0
6.437820370E0,3.622050285E0,-1.023405075E1,-2.149049997E0
6.457820370E0,3.622050285E0,-1.023405075E1,-2.149049997E0
6.477820370E0,3.622050285E0,-1.023405075E1,-2.149049997E0
6.497820370E0,3.622050285E0,-1.023405075E1,-2.149049997E0
6.517820370E0,2.644950151E0,-6.748950481E0,7.200000435E-2
6.537820370E0,2.644950151E0,-6.748950481E0,7.200000435E-2
6.557820370E0,2.644950151E0,-6.748950481E0,7.200000435E-2
6.577820370E0,2.644950151E0,-6.748950481E0,7.200000435E-2
6.597820370E0,2.644950151E0,-6.748950481E0,7.200000435E-2
6.617820370E0,-9.195000678E-2,-5.542950153E0,-1.189500093E-1
6.637820370E0,-9.195000678E-2,-5.542950153E0,-1.189500093E-1
6.657820370E0,-6.660000086E-1,-2.326050043E0,-4.249500334E-1
6.677820370E0,-6.660000086E-1,-2.326050043E0,-4.249500334E-1
6.697820370E0,-6.660000086E-1,-2.326050043E0,-4.249500334E-1
6.717820370E0,-6.660000086E-1,-2.326050043E0,-4.249500334E-1
6.737820370E0,-6.660000086E-1,-2.326050043E0,-4.249500334E-1
6.757820370E0,5.191950321E0,-1.040700054E1,6.658950329E0
6.777820370E0,5.191950321E0,-1.040700054E1,6.658950329E0
6.797820370E0,8.103000641E0,-2.629995155E1,1.834050059E0
6.817820370E0,8.103000641E0,-2.629995155E1,1.834050059E0
6.837820370E0,8.103000641E0,-2.629995155E1,1.834050059E0
6.857820370E0,5.958000183E0,-3.742950201E0,3.970500231E-1
6.877820370E0,5.958000183E0,-3.742950201E0,3.970500231E-1
6.897820370E0,5.230950356E0,-1.111500072E1,1.009950042E0
6.917820370E0,5.230950356E0,-1.111500072E1,1.009950042E0
6.937820370E0,5.230950356E0,-1.111500072E1,1.009950042E0
6.957820370E0,5.230950356E0,-1.111500072E1,1.009950042E0
6.977820370E0,5.230950356E0,-1.111500072E1,1.009950042E0
6.997820370E0,5.230950356E0,-1.111500072E1,1.009950042E0
7.017820370E0,5.230950356E0,-1.111500072E1,1.009950042E0
7.037820370E0,5.230950356E0,-1.111500072E1,1.009950042E0
7.057820370E0,5.230950356E0,-1.111500072E1,1.009950042E0
7.077820370E0,5.230950356E0,-1.111500072E1,1.009950042E0
7.097820370E0,2.665050030E0,-7.458000183E0,-3.100500107E-1
7.117820370E0,2.665050030E0,-7.458000183E0,-3.100500107E-1
7.137820370E0,5.058000088E0,-1.008105087E1,-4.830000103E-1
7.157820370E0,5.058000088E0,-1.008105087E1,-4.830000103E-1
7.177820370E0,5.058000088E0,-1.008105087E1,-4.830000103E-1
7.197820370E0,4.063050270E0,-1.153605080E1,9.529500604E-1
7.217820370E0,4.063050270E0,-1.153605080E1,9.529500604E-1
7.237820370E0,4.752000332E0,-1.205295086E1,1.834050059E0
7.257820370E0,4.752000332E0,-1.205295086E1,1.834050059E0
7.277820370E0,4.752000332E0,-1.205295086E1,1.834050059E0
7.297820370E0,4.752000332E0,-1.205295086E1,1.834050059E0
7.317820370E0,4.752000332E0,-1.205295086E1,1.834050059E0
7.337820370E0,3.948000193E0,-1.647705078E1,-1.114050031E0
7.357820370E0,3.948000193E0,-1.647705078E1,-1.114050031E0
7.377820370E0,3.948000193E0,-1.647705078E1,-1.114050031E0
7.397820370E0,3.948000193E0,-1.647705078E1,-1.114050031E0
7.417820370E0,3.948000193E0,-1.647705078E1,-1.114050031E0
7.437820370E0,5.689950466E0,-1.067505074E1,3.556950092E0
7.457820370E0,5.689950466E0,-1.067505074E1,3.556950092E0
7.477820370E0,3.009000063E0,-9.391950607E0,7.195050240E0
7.497820370E0,3.009000063E0,-9.391950607E0,7.195050240E0
7.517820370E0,3.009000063E0,-9.391950607E0,7.195050240E0
7.537820370E0,3.009000063E0,-9.391950607E0,7.195050240E0
7.557820370E0,3.009000063E0,-9.391950607E0,7.195050240E0
7.577820370E0,3.009000063E0,-9.391950607E0,7.195050240E0
7.597820370E0,3.009000063E0,-9.391950607E0,7.195050240E0
7.617820370E0,3.544950247E0,-7.534050465E0,-1.248000026E0
7.637820370E0,3.544950247E0,-7.534050465E0,-1.248000026E0
7.657820370E0,3.544950247E0,-7.534050465E0,-1.248000026E0
7.677820370E0,1.744950056E0,-6.901950359E0,-4.630500078E-1
7.697820370E0,1.744950056E0,-6.901950359E0,-4.630500078E-1
7.717820370E0,-7.810500264E-1,-5.791950226E0,5.700000525E-1
7.737820370E0,-7.810500264E-1,-5.791950226E0,5.700000525E-1
7.757820370E0,-7.810500264E-1,-5.791950226E0,5.700000525E-1
7.777820370E0,-7.810500264E-1,-5.791950226E0,5.700000525E-1
7.797820370E0,-7.810500264E-1,-5.791950226E0,5.700000525E-1
7.817820370E0,1.956000090E0,-1.597950101E0,-1.324950099E0
7.837820370E0,1.956000090E0,-1.597950101E0,-1.324950099E0
7.857820370E0,7.891950607E0,-1.680195045E1,7.200000435E-2
7.857820370E0,7.891950607E0,-1.680195045E1,7.200000435E-2
7.897820370E0,7.891950607E0,-1.680195045E1,7.200000435E-2
7.917820370E0,7.969050407E0,-2.015400124E1,-1.842000127E0
7.937820370E0,7.969050407E0,-2.015400124E1,-1.842000127E0
7.957820370E0,6.322050095E0,-5.101950169E0,1.048050046E0
7.977820370E0,6.322050095E0,-5.101950169E0,1.048050046E0
7.997820370E0,6.322050095E0,-5.101950169E0,1.048050046E0
8.017820370E0,6.322050095E0,-5.101950169E0,1.048050046E0
8.037820370E0,6.322050095E0,-5.101950169E0,1.048050046E0
8.057820370E0,1.554000020E0,-7.840950489E0,2.331000090E0
8.077820370E0,1.554000020E0,-7.840950489E0,2.331000090E0
8.097820370E0,1.554000020E0,-7.840950489E0,2.331000090E0
8.117820370E0,1.554000020E0,-7.840950489E0,2.331000090E0
8.137820370E0,1.554000020E0,-7.840950489E0,2.331000090E0
8.157820370E0,2.397000074E0,-7.783050537E0,1.099500060E-1
8.177820370E0,2.397000074E0,-7.783050537E0,1.099500060E-1
8.197820370E0,3.277050257E0,-8.281050682E0,5.700000525E-1
8.217820370E0,3.277050257E0,-8.281050682E0,5.700000525E-1
8.237820370E0,3.277050257E0,-8.281050682E0,5.700000525E-1
8.257820370E0,5.287950039E0,-1.034895039E1,4.549500346E-1
8.277820370E0,5.287950039E0,-1.034895039E1,4.549500346E-1
8.297820370E0,3.736950159E0,-1.063605022E1,1.354950070E0
8.317820370E0,3.736950159E0,-1.063605022E1,1.354950070E0
8.337820370E0,2.205000162E0,-1.067505074E1,4.549500346E-1
8.357820370E0,2.205000162E0,-1.067505074E1,4.549500346E-1
8.377820370E0,2.205000162E0,-1.067505074E1,4.549500346E-1
8.397820370E0,3.640950203E0,-1.567305088E1,-3.240000248E0
8.417820370E0,3.640950203E0,-1.567305088E1,-3.240000248E0
8.437820370E0,3.640950203E0,-1.567305088E1,-3.240000248E0
8.457820370E0,3.640950203E0,-1.567305088E1,-3.240000248E0
8.477820370E0,3.640950203E0,-1.567305088E1,-3.240000248E0
8.497820370E0,3.430950165E0,-1.239795017E1,-8.677950859E0
8.517820370E0,3.430950165E0,-1.239795017E1,-8.677950859E0
8.537820370E0,5.479950428E0,-1.084695053E1,7.080000401E0
8.557820370E0,5.479950428E0,-1.084695053E1,7.080000401E0
8.577820370E0,5.479950428E0,-1.084695053E1,7.080000401E0
8.597820370E0,5.479950428E0,-1.084695053E1,7.080000401E0
8.617820370E0,5.479950428E0,-1.084695053E1,7.080000401E0
8.637820370E0,2.530950069E0,-1.056000042E1,-8.812050819E0
8.657820370E0,2.530950069E0,-1.056000042E1,-8.812050819E0
8.677820370E0,9.220500588E-1,-8.473050117E0,2.772000074E0
8.697820370E0,9.220500588E-1,-8.473050117E0,2.772000074E0
8.717820370E0,9.220500588E-1,-8.473050117E0,2.772000074E0
8.737820370E0,2.875050068E0,-6.270000458E0,-1.708050132E0
8.757820370E0,2.875050068E0,-6.270000458E0,-1.708050132E0
8.777820370E0,2.875050068E0,-6.270000458E0,-1.708050132E0
8.797820370E0,2.875050068E0,-6.270000458E0,-1.708050132E0
8.817820370E0,2.875050068E0,-6.270000458E0,-1.708050132E0
8.837820370E0,2.875050068E0,-6.270000458E0,-1.708050132E0
8.857820370E0,2.875050068E0,-6.270000458E0,-1.708050132E0
8.877820370E0,2.875050068E0,-6.270000458E0,-1.708050132E0
8.897820370E0,2.875050068E0,-6.270000458E0,-1.708050132E0
8.917820370E0,2.875050068E0,-6.270000458E0,-1.708050132E0
8.937820370E0,2.875050068E0,-6.270000458E0,-1.708050132E0
8.957820370E0,2.875050068E0,-6.270000458E0,-1.708050132E0
8.977820370E0,6.303000450E0,-8.644950867E0,4.054950237E0
8.997820370E0,6.303000450E0,-8.644950867E0,4.054950237E0
9.017820370E0,9.865050316E0,-2.982405090E1,-1.497000098E0
9.037820370E0,9.865050316E0,-2.982405090E1,-1.497000098E0
9.057820370E0,9.865050316E0,-2.982405090E1,-1.497000098E0
9.077820370E0,4.254000187E0,-4.030050278E0,-1.191000104E0
9.097820370E0,4.254000187E0,-4.030050278E0,-1.191000104E0
9.117820370E0,4.924050331E0,-1.132605076E1,1.585050106E0
9.137820370E0,4.924050331E0,-1.132605076E1,1.585050106E0
9.157820370E0,4.924050331E0,-1.132605076E1,1.585050106E0
9.177820370E0,4.924050331E0,-1.132605076E1,1.585050106E0
9.197820370E0,4.924050331E0,-1.132605076E1,1.585050106E0
9.217820370E0,1.209000111E0,-6.136050224E0,1.450950027E0
9.237820370E0,1.209000111E0,-6.136050224E0,1.450950027E0
9.257820370E0,1.209000111E0,-6.136050224E0,1.450950027E0
9.277820370E0,1.209000111E0,-6.136050224E0,1.450950027E0
9.297820370E0,1.209000111E0,-6.136050224E0,1.450950027E0
9.317820370E0,2.185950041E0,-8.395950317E0,1.087050080E0
9.337820370E0,2.185950041E0,-8.395950317E0,1.087050080E0
9.357820370E0,3.583950281E0,-8.913000107E0,-1.380000114E-1
9.377820370E0,3.583950281E0,-8.913000107E0,-1.380000114E-1
9.397820370E0,3.583950281E0,-8.913000107E0,-1.380000114E-1
9.417820370E0,3.583950281E0,-8.913000107E0,-1.380000114E-1
9.437820370E0,3.583950281E0,-8.913000107E0,-1.380000114E-1
9.457820370E0,3.699000120E0,-1.004295063E1,7.609500289E-1
9.477820370E0,3.699000120E0,-1.004295063E1,7.609500289E-1
9.497820370E0,3.603000164E0,-1.272405052E1,-1.038000107E0
9.517820370E0,3.603000164E0,-1.272405052E1,-1.038000107E0
9.537820370E0,3.603000164E0,-1.272405052E1,-1.038000107E0
9.557820370E0,3.162000179E0,-1.437105083E1,5.509500504E-1
9.577820370E0,3.162000179E0,-1.437105083E1,5.509500504E-1
9.597820370E0,3.162000179E0,-1.437105083E1,5.509500504E-1
9.617820370E0,3.162000179E0,-1.437105083E1,5.509500504E-1
9.637820370E0,3.162000179E0,-1.437105083E1,5.509500504E-1
9.657820370E0,3.162000179E0,-1.437105083E1,5.509500504E-1
9.677820370E0,3.162000179E0,-1.437105083E1,5.509500504E-1
9.697820370E0,3.162000179E0,-1.437105083E1,5.509500504E-1
9.717820370E0,3.162000179E0,-1.437105083E1,5.509500504E-1
9.737820370E0,3.162000179E0,-1.437105083E1,5.509500504E-1
9.757820370E0,3.162000179E0,-1.437105083E1,5.509500504E-1
9.777820370E0,3.162000179E0,-1.437105083E1,5.509500504E-1
9.797820370E0,5.001000404E0,-8.146950722E0,3.117000103E0
9.817820370E0,5.001000404E0,-8.146950722E0,3.117000103E0
9.837820370E0,3.334950209E0,-8.377050400E0,-2.512050152E0
9.857820370E0,3.334950209E0,-8.377050400E0,-2.512050152E0
9.877820370E0,3.334950209E0,-8.377050400E0,-2.512050152E0
9.897820370E0,2.550000191E0,-1.004295063E1,3.901950121E0
9.917820370E0,2.550000191E0,-1.004295063E1,3.901950121E0
9.937820370E0,2.550000191E0,-1.004295063E1,3.901950121E0
9.957820370E0,2.550000191E0,-1.004295063E1,3.901950121E0
9.977820370E0,2.550000191E0,-1.004295063E1,3.901950121E0
9.997820370E0,2.550000191E0,-1.004295063E1,3.901950121E0
1.001782037E1,2.550000191E0,-1.004295063E1,3.901950121E0
1.003782037E1,1.750500053E-1,-4.011000156E0,2.059500068E-1
1.005782037E1,1.750500053E-1,-4.011000156E0,2.059500068E-1
1.007782037E1,1.750500053E-1,-4.011000156E0,2.059500068E-1
1.009782037E1,1.750500053E-1,-4.011000156E0,2.059500068E-1
1.011782037E1,1.750500053E-1,-4.011000156E0,2.059500068E-1
1.013782037E1,9.799500704E-1,-3.321000099E0,-3.144000053E0
1.015782037E1,9.799500704E-1,-3.321000099E0,-3.144000053E0
1.017782037E1,1.258395100E1,-2.208795166E1,-1.206795025E1
1.019782037E1,1.258395100E1,-2.208795166E1,-1.206795025E1
1.021782037E1,4.157999992E0,-2.023005104E1,9.129000664E0
1.021782037E1,4.157999992E0,-2.023005104E1,9.129000664E0
1.025782037E1,4.157999992E0,-2.023005104E1,9.129000664E0
1.027782037E1,5.997000217E0,-8.893950462E0,2.293050051E0
1.029782037E1,5.997000217E0,-8.893950462E0,2.293050051E0
1.031782037E1,5.997000217E0,-8.893950462E0,2.293050051E0
1.033782037E1,5.997000217E0,-8.893950462E0,2.293050051E0
1.035782037E1,5.997000217E0,-8.893950462E0,2.293050051E0
1.037782037E1,1.055999994E0,-7.228050232E0,1.756950140E0
1.039782037E1,1.055999994E0,-7.228050232E0,1.756950140E0
1.041782037E1,1.055999994E0,-7.228050232E0,1.756950140E0
1.043782037E1,1.055999994E0,-7.228050232E0,1.756950140E0
1.045782037E1,1.055999994E0,-7.228050232E0,1.756950140E0
1.047782037E1,1.055999994E0,-7.228050232E0,1.756950140E0
1.049782037E1,1.055999994E0,-7.228050232E0,1.756950140E0
1.051782037E1,5.077050209E0,-8.932050705E0,1.009950042E0
1.053782037E1,5.077050209E0,-8.932050705E0,1.009950042E0
1.055782037E1,5.077050209E0,-8.932050705E0,1.009950042E0
1.057782037E1,5.077050209E0,-8.932050705E0,1.009950042E0
1.059782037E1,5.077050209E0,-8.932050705E0,1.009950042E0
1.061782037E1,3.201000214E0,-9.334050179E0,7.990500331E-1
1.063782037E1,3.201000214E0,-9.334050179E0,7.990500331E-1
1.065782037E1,3.201000214E0,-9.334050179E0,7.990500331E-1
1.067782037E1,3.201000214E0,-9.334050179E0,7.990500331E-1
1.069782037E1,3.201000214E0,-9.334050179E0,7.990500331E-1
1.071782037E1,1.036949992E0,-1.241700077E1,1.564950109E0
1.073782037E1,1.036949992E0,-1.241700077E1,1.564950109E0
1.075782037E1,2.491950035E0,-1.626600075E1,4.740000367E-1
1.077782037E1,2.491950035E0,-1.626600075E1,4.740000367E-1
1.079782037E1,2.491950035E0,-1.626600075E1,4.740000367E-1
1.081782037E1,2.491950035E0,-1.626600075E1,4.740000367E-1
1.083782037E1,2.491950035E0,-1.626600075E1,4.740000367E-1
1.085782037E1,3.316050053E0,-9.660000801E0,-3.622950077E0
1.087782037E1,3.316050053E0,-9.660000801E0,-3.622950077E0
1.089782037E1,4.942950249E0,-9.697950363E0,-1.593000054E0
1.091782037E1,4.942950249E0,-9.697950363E0,-1.593000054E0
1.093782037E1,4.942950249E0,-9.697950363E0,-1.593000054E0
1.095782037E1,6.609000206E0,-9.009000778E0,9.340050697E0
1.097782037E1,6.609000206E0,-9.009000778E0,9.340050697E0
1.099782037E1,4.387950420E0,-8.452950478E0,4.054950237E0
1.101782037E1,4.387950420E0,-8.452950478E0,4.054950237E0
1.103782037E1,4.387950420E0,-8.452950478E0,4.054950237E0
1.105782037E1,4.387950420E0,-8.452950478E0,4.054950237E0
1.107782037E1,4.387950420E0,-8.452950478E0,4.054950237E0
1.109782037E1,5.389500260E-1,-8.740950584E0,2.829000235E0
1.111782037E1,5.389500260E-1,-8.740950584E0,2.829000235E0
1.113782037E1,5.389500260E-1,-8.740950584E0,2.829000235E0
1.115782037E1,5.389500260E-1,-8.740950584E0,2.829000235E0
1.117782037E1,5.389500260E-1,-8.740950584E0,2.829000235E0
1.119782037E1,2.520000041E-1,-6.768000126E0,1.680000067E0
1.121782037E1,2.520000041E-1,-6.768000126E0,1.680000067E0
1.123782037E1,2.520000041E-1,-6.768000126E0,1.680000067E0
1.125782037E1,2.520000041E-1,-6.768000126E0,1.680000067E0
1.127782037E1,2.520000041E-1,-6.768000126E0,1.680000067E0
1.129782037E1,2.520000041E-1,-6.768000126E0,1.680000067E0
1.131782037E1,2.520000041E-1,-6.768000126E0,1.680000067E0
1.133782037E1,4.675050259E0,-7.917000294E0,-5.691000462E0
1.135782037E1,4.675050259E0,-7.917000294E0,-5.691000462E0
1.137782037E1,4.675050259E0,-7.917000294E0,-5.691000462E0
1.139782037E1,4.675050259E0,-7.917000294E0,-5.691000462E0
1.141782037E1,4.675050259E0,-7.917000294E0,-5.691000462E0
1.143782037E1,7.987950325E0,-1.358505058E1,-5.289000034E0
1.145782037E1,7.987950325E0,-1.358505058E1,-5.289000034E0
1.147782037E1,1.726050138E0,-1.236000061E1,6.649500132E-1
1.149782037E1,1.726050138E0,-1.236000061E1,6.649500132E-1
1.151782037E1,1.726050138E0,-1.236000061E1,6.649500132E-1
1.153782037E1,1.726050138E0,-1.236000061E1,6.649500132E-1
1.155782037E1,1.726050138E0,-1.236000061E1,6.649500132E-1
1.157782037E1,1.726050138E0,-1.236000061E1,6.649500132E-1
1.159782037E1,1.726050138E0,-1.236000061E1,6.649500132E-1
1.161782037E1,1.726050138E0,-1.236000061E1,6.649500132E-1
1.163782037E1,1.726050138E0,-1.236000061E1,6.649500132E-1
1.165782037E1,1.726050138E0,-1.236000061E1,6.649500132E-1
1.167782037E1,1.152000070E0,-8.893950462E0,2.887050152E0
1.169782037E1,1.152000070E0,-8.893950462E0,2.887050152E0
1.171782037E1,2.301000118E0,-9.295950890E0,1.738050103E0
1.173782037E1,2.301000118E0,-9.295950890E0,1.738050103E0
1.175782037E1,2.301000118E0,-9.295950890E0,1.738050103E0
1.177782037E1,2.875050068E0,-9.028050423E0,1.068000078E0
1.179782037E1,2.875050068E0,-9.028050423E0,1.068000078E0
1.181782037E1,2.434950113E0,-9.065999985E0,1.411950111E0
1.183782037E1,2.434950113E0,-9.065999985E0,1.411950111E0
1.185782037E1,2.434950113E0,-9.065999985E0,1.411950111E0
1.187782037E1,2.434950113E0,-9.065999985E0,1.411950111E0
1.189782037E1,2.434950113E0,-9.065999985E0,1.411950111E0
1.191782037E1,3.859500289E-1,-9.946950912E0,3.970500231E-1
1.193782037E1,3.859500289E-1,-9.946950912E0,3.970500231E-1
1.195782037E1,2.530950069E0,-1.096200085E1,1.929000139E0
1.195782037E1,2.530950069E0,-1.096200085E1,1.929000139E0
1.199782037E1,2.530950069E0,-1.096200085E1,1.929000139E0
1.201782037E1,4.579950333E0,-1.159395027E1,5.509500504E-1
1.203782037E1,4.579950333E0,-1.159395027E1,5.509500504E-1
1.205782037E1,5.689950466E0,-1.000500011E1,-3.469950199E0
1.207782037E1,5.689950466E0,-1.000500011E1,-3.469950199E0
1.209782037E1,5.689950466E0,-1.000500011E1,-3.469950199E0
1.211782037E1,5.689950466E0,-1.000500011E1,-3.469950199E0
1.213782037E1,5.689950466E0,-1.000500011E1,-3.469950199E0
1.215782037E1,7.738950253E0,-1.061700058E1,1.776000142E0
1.217782037E1,7.738950253E0,-1.061700058E1,1.776000142E0
1.219782037E1,7.738950253E0,-1.061700058E1,1.776000142E0
1.221782037E1,7.738950253E0,-1.061700058E1,1.776000142E0
1.223782037E1,7.738950253E0,-1.061700058E1,1.776000142E0
1.225782037E1,2.358000040E0,-1.691700172E1,3.997050285E0
1.227782037E1,2.358000040E0,-1.691700172E1,3.997050285E0
1.229782037E1,2.358000040E0,-1.691700172E1,3.997050285E0
1.231782037E1,2.358000040E0,-1.691700172E1,3.997050285E0
1.233782037E1,2.358000040E0,-1.691700172E1,3.997050285E0
1.235782037E1,2.358000040E0,-1.691700172E1,3.997050285E0
1.237782037E1,2.358000040E0,-1.691700172E1,3.997050285E0
1.239782037E1,2.550000191E0,-1.021500015E1,3.193050146E0
1.241782037E1,2.550000191E0,-1.021500015E1,3.193050146E0
1.243782037E1,7.107000351E0,-1.017705059E1,1.336050034E0
1.245782037E1,7.107000351E0,-1.017705059E1,1.336050034E0
1.247782037E1,7.107000351E0,-1.017705059E1,1.336050034E0
1.249782037E1,6.667050362E0,-9.697950363E0,4.740000367E-1
1.251782037E1,6.667050362E0,-9.697950363E0,4.740000367E-1
1.253782037E1,6.667050362E0,-9.697950363E0,4.740000367E-1
1.255782037E1,6.667050362E0,-9.697950363E0,4.740000367E-1
1.257782037E1,6.667050362E0,-9.697950363E0,4.740000367E-1
1.259782037E1,6.667050362E0,-9.697950363E0,4.740000367E-1
1.261782037E1,6.667050362E0,-9.697950363E0,4.740000367E-1
1.263782037E1,2.511000156E0,-2.134050131E0,-3.100500107E-1
1.265782037E1,2.511000156E0,-2.134050131E0,-3.100500107E-1
1.267782037E1,2.511000156E0,-2.134050131E0,-3.100500107E-1
1.269782037E1,2.511000156E0,-2.134050131E0,-3.100500107E-1
1.271782037E1,2.511000156E0,-2.134050131E0,-3.100500107E-1
1.273782037E1,7.777050495E0,-5.638950348E0,-1.036305046E1
1.275782037E1,7.777050495E0,-5.638950348E0,-1.036305046E1
1.277782037E1,4.197000027E0,-1.599795055E1,-6.706050396E0
1.279782037E1,4.197000027E0,-1.599795055E1,-6.706050396E0
1.281782037E1,4.197000027E0,-1.599795055E1,-6.706050396E0
1.283782037E1,3.603000164E0,-1.052205086E1,1.546050072E0
1.285782037E1,3.603000164E0,-1.052205086E1,1.546050072E0
1.287782037E1,2.491950035E0,-1.155600071E1,1.297050118E0
1.289782037E1,2.491950035E0,-1.155600071E1,1.297050118E0
1.291782037E1,2.128050089E0,-1.123005009E1,5.509500504E-1
1.293782037E1,2.128050089E0,-1.123005009E1,5.509500504E-1
1.295782037E1,2.128050089E0,-1.123005009E1,5.509500504E-1
1.297782037E1,5.077050209E0,-7.993950367E0,-6.105000153E-2
1.299782037E1,5.077050209E0,-7.993950367E0,-6.105000153E-2
1.301782037E1,5.077050209E0,-7.993950367E0,-6.105000153E-2
1.303782037E1,5.077050209E0,-7.993950367E0,-6.105000153E-2
1.305782037E1,5.077050209E0,-7.993950367E0,-6.105000153E-2
1.307782037E1,3.967050076E0,-7.801950455E0,4.930500090E-1
1.309782037E1,3.967050076E0,-7.801950455E0,4.930500090E-1
1.311782037E1,3.967050076E0,-7.801950455E0,4.930500090E-1
1.313782037E1,3.967050076E0,-7.801950455E0,4.930500090E-1
1.315782037E1,3.967050076E0,-7.801950455E0,4.930500090E-1
1.317782037E1,3.967050076E0,-7.801950455E0,4.930500090E-1
1.319782037E1,3.967050076E0,-7.801950455E0,4.930500090E-1
1.321782037E1,2.607000113E0,-9.124050140E0,1.431000113E0
1.323782037E1,2.607000113E0,-9.124050140E0,1.431000113E0
1.325782037E1,2.320050001E0,-9.411000252E0,2.250000089E-1
1.327782037E1,2.320050001E0,-9.411000252E0,2.250000089E-1
1.329782037E1,2.320050001E0,-9.411000252E0,2.250000089E-1
1.331782037E1,2.644950151E0,-1.054095078E1,-4.630500078E-1
1.333782037E1,2.644950151E0,-1.054095078E1,-4.630500078E-1
1.335782037E1,2.644950151E0,-1.054095078E1,-4.630500078E-1
1.337782037E1,2.644950151E0,-1.054095078E1,-4.630500078E-1
1.339782037E1,2.644950151E0,-1.054095078E1,-4.630500078E-1
1.341782037E1,4.444950104E0,-1.615095139E1,1.564950109E0
1.343782037E1,4.444950104E0,-1.615095139E1,1.564950109E0
1.345782037E1,4.579950333E0,-1.532805061E1,-1.402050018E0
1.347782037E1,4.579950333E0,-1.532805061E1,-1.402050018E0
1.349782037E1,4.579950333E0,-1.532805061E1,-1.402050018E0
1.351782037E1,4.579950333E0,-1.532805061E1,-1.402050018E0
1.353782037E1,4.579950333E0,-1.532805061E1,-1.402050018E0
1.355782037E1,6.552000523E0,-1.159395027E1,9.819000244E0
1.357782037E1,6.552000523E0,-1.159395027E1,9.819000244E0
1.359782037E1,6.552000523E0,-1.159395027E1,9.819000244E0
1.361782037E1,6.552000523E0,-1.159395027E1,9.819000244E0
1.363782037E1,6.552000523E0,-1.159395027E1,9.819000244E0
1.365782037E1,2.052000046E0,-9.583050728E0,-8.065950394E0
1.367782037E1,2.052000046E0,-9.583050728E0,-8.065950394E0
1.369782037E1,2.052000046E0,-9.583050728E0,-8.065950394E0
1.371782037E1,2.052000046E0,-9.583050728E0,-8.065950394E0
1.373782037E1,2.052000046E0,-9.583050728E0,-8.065950394E0
1.375782037E1,2.052000046E0,-9.583050728E0,-8.065950394E0
1.377782037E1,2.052000046E0,-9.583050728E0,-8.065950394E0
1.379782037E1,2.952000141E0,-7.534050465E0,6.649500132E-1
1.381782037E1,2.952000141E0,-7.534050465E0,6.649500132E-1
1.383782037E1,2.952000141E0,-7.534050465E0,6.649500132E-1
1.385782037E1,2.952000141E0,-7.534050465E0,6.649500132E-1
1.387782037E1,2.952000141E0,-7.534050465E0,6.649500132E-1
1.389782037E1,2.520000041E-1,-5.070000291E-1,-2.910000086E-1
1.391782037E1,2.520000041E-1,-5.070000291E-1,-2.910000086E-1
1.393782037E1,3.277050257E0,-3.034050226E0,-6.550500393E-1
1.395782037E1,3.277050257E0,-3.034050226E0,-6.550500393E-1
1.397782037E1,3.277050257E0,-3.034050226E0,-6.550500393E-1
1.399782037E1,3.277050257E0,-3.034050226E0,-6.550500393E-1
1.401782037E1,3.277050257E0,-3.034050226E0,-6.550500393E-1
1.403782037E1,6.628050327E0,-2.099595070E1,3.787050247E0
1.405782037E1,6.628050327E0,-2.099595070E1,3.787050247E0
1.407782037E1,6.628050327E0,-2.099595070E1,3.787050247E0
1.409782037E1,6.628050327E0,-2.099595070E1,3.787050247E0
1.411782037E1,6.628050327E0,-2.099595070E1,3.787050247E0
1.413782037E1,2.607000113E0,-1.285800076E1,1.603950024E0
1.415782037E1,2.607000113E0,-1.285800076E1,1.603950024E0
1.417782037E1,2.607000113E0,-1.285800076E1,1.603950024E0
1.419782037E1,2.607000113E0,-1.285800076E1,1.603950024E0
1.421782037E1,2.607000113E0,-1.285800076E1,1.603950024E0
1.423782037E1,1.228050113E0,-6.634050369E0,-6.930000186E-1
1.425782037E1,1.228050113E0,-6.634050369E0,-6.930000186E-1
1.427782037E1,2.530950069E0,-8.089950562E0,9.139500260E-1
1.429782037E1,2.530950069E0,-8.089950562E0,9.139500260E-1
1.431782037E1,3.391950130E0,-8.299950600E0,1.029000044E0
1.433782037E1,3.391950130E0,-8.299950600E0,1.029000044E0
1.435782037E1,3.391950130E0,-8.299950600E0,1.029000044E0
1.437782037E1,5.977050304E0,-8.740950584E0,7.200000435E-2
1.439782037E1,5.977050304E0,-8.740950584E0,7.200000435E-2
1.441782037E1,5.977050304E0,-8.740950584E0,7.200000435E-2
1.443782037E1,5.977050304E0,-8.740950584E0,7.200000435E-2
1.445782037E1,5.977050304E0,-8.740950584E0,7.200000435E-2
1.447782037E1,2.454000235E0,-9.526050568E0,3.970500231E-1
1.449782037E1,2.454000235E0,-9.526050568E0,3.970500231E-1
1.451782037E1,2.358000040E0,-1.040700054E1,2.044049978E0
1.453782037E1,2.358000040E0,-1.040700054E1,2.044049978E0
1.455782037E1,2.358000040E0,-1.040700054E1,2.044049978E0
1.457782037E1,2.358000040E0,-1.040700054E1,2.044049978E0
1.459782037E1,2.358000040E0,-1.040700054E1,2.044049978E0
1.461782037E1,3.354000092E0,-1.703205109E1,5.295000225E-2
1.463782037E1,3.354000092E0,-1.703205109E1,5.295000225E-2
1.465782037E1,2.205000073E-2,-1.289595032E1,-5.059050083E0
1.467782037E1,2.205000073E-2,-1.289595032E1,-5.059050083E0
1.469782037E1,2.205000073E-2,-1.289595032E1,-5.059050083E0
1.471782037E1,2.397000074E0,-1.006200027E1,-2.646000147E0
1.473782037E1,2.397000074E0,-1.006200027E1,-2.646000147E0
1.475782037E1,2.397000074E0,-1.006200027E1,-2.646000147E0
1.477782037E1,2.397000074E0,-1.006200027E1,-2.646000147E0
1.479782037E1,2.397000074E0,-1.006200027E1,-2.646000147E0
1.481782037E1,2.397000074E0,-1.006200027E1,-2.646000147E0
1.483782037E1,2.397000074E0,-1.006200027E1,-2.646000147E0
1.485782037E1,2.109000206E0,-7.687050343E0,1.527000070E0
1.487782037E1,2.109000206E0,-7.687050343E0,1.527000070E0
1.489782037E1,2.109000206E0,-7.687050343E0,1.527000070E0
1.491782037E1,2.109000206E0,-7.687050343E0,1.527000070E0
1.493782037E1,2.109000206E0,-7.687050343E0,1.527000070E0
1.495782037E1,5.326050282E0,-7.801950455E0,1.470000029E0
1.497782037E1,5.326050282E0,-7.801950455E0,1.470000029E0
1.499782037E1,3.507000208E0,-8.434050560E0,1.290000081E-1
1.501782037E1,3.507000208E0,-8.434050560E0,1.290000081E-1
1.503782037E1,3.507000208E0,-8.434050560E0,1.290000081E-1
1.505782037E1,2.148000002E0,-6.519000530E0,5.295000225E-2
1.507782037E1,2.148000002E0,-6.519000530E0,5.295000225E-2
1.509782037E1,1.744950056E0,-4.758000374E0,-7.890000343E-1
1.511782037E1,1.744950056E0,-4.758000374E0,-7.890000343E-1
1.513782037E1,1.744950056E0,-4.758000374E0,-7.890000343E-1
1.515782037E1,1.744950056E0,-4.758000374E0,-7.890000343E-1
1.517782037E1,1.744950056E0,-4.758000374E0,-7.890000343E-1
1.519782037E1,3.028050184E0,-2.919000149E0,-2.800050020E0
1.521782037E1,3.028050184E0,-2.919000149E0,-2.800050020E0
1.523782037E1,1.089900017E1,-8.740950584E0,4.456950188E0
1.523782037E1,1.089900017E1,-8.740950584E0,4.456950188E0
1.527782037E1,1.089900017E1,-8.740950584E0,4.456950188E0
1.529782037E1,1.036305046E1,-1.873695183E1,-2.340000123E-1
1.531782037E1,1.036305046E1,-1.873695183E1,-2.340000123E-1
1.533782037E1,5.842950344E0,-5.524050236E0,-1.420950055E0
1.535782037E1,5.842950344E0,-5.524050236E0,-1.420950055E0
1.537782037E1,5.842950344E0,-5.524050236E0,-1.420950055E0
1.539782037E1,5.842950344E0,-5.524050236E0,-1.420950055E0
1.541782037E1,5.842950344E0,-5.524050236E0,-1.420950055E0
1.543782037E1,1.611000061E0,-1.073205090E1,2.274000168E0
1.545782037E1,1.611000061E0,-1.073205090E1,2.274000168E0
1.547782037E1,1.611000061E0,-1.073205090E1,2.274000168E0
1.549782037E1,1.611000061E0,-1.073205090E1,2.274000168E0
1.551782037E1,1.611000061E0,-1.073205090E1,2.274000168E0
1.553782037E1,3.450000048E0,-7.150950432E0,7.609500289E-1
1.555782037E1,3.450000048E0,-7.150950432E0,7.609500289E-1
1.557782037E1,3.450000048E0,-7.150950432E0,7.609500289E-1
1.559782037E1,3.450000048E0,-7.150950432E0,7.609500289E-1
1.561782037E1,3.450000048E0,-7.150950432E0,7.609500289E-1
1.563782037E1,3.450000048E0,-7.150950432E0,7.609500289E-1
1.565782037E1,3.450000048E0,-7.150950432E0,7.609500289E-1
1.567782037E1,4.387950420E0,-8.875050545E0,2.250000089E-1
1.569782037E1,4.387950420E0,-8.875050545E0,2.250000089E-1
1.571782037E1,4.350000381E0,-9.832050323E0,1.393050075E0
1.573782037E1,4.350000381E0,-9.832050323E0,1.393050075E0
1.575782037E1,4.350000381E0,-9.832050323E0,1.393050075E0
1.577782037E1,2.875050068E0,-9.277050018E0,1.719000101E0
1.579782037E1,2.875050068E0,-9.277050018E0,1.719000101E0
1.581782037E1,2.875050068E0,-9.277050018E0,1.719000101E0
1.583782037E1,2.875050068E0,-9.277050018E0,1.719000101E0
1.585782037E1,2.875050068E0,-9.277050018E0,1.719000101E0
1.587782037E1,2.875050068E0,-9.277050018E0,1.719000101E0
1.589782037E1,2.875050068E0,-9.277050018E0,1.719000101E0
1.591782037E1,2.109000206E0,-1.440900040E1,1.144050002E0
1.593782037E1,2.109000206E0,-1.440900040E1,1.144050002E0
1.595782037E1,2.109000206E0,-1.440900040E1,1.144050002E0
1.597782037E1,2.109000206E0,-1.440900040E1,1.144050002E0
1.599782037E1,2.109000206E0,-1.440900040E1,1.144050002E0
1.601782037E1,3.670500219E-1,-1.113405037E1,-2.397000074E0
1.603782037E1,3.670500219E-1,-1.113405037E1,-2.397000074E0
1.605782037E1,3.411000252E0,-8.855999947E0,-2.071950197E0
1.607782037E1,3.411000252E0,-8.855999947E0,-2.071950197E0
1.609782037E1,3.411000252E0,-8.855999947E0,-2.071950197E0
1.611782037E1,6.207000256E0,-1.056000042E1,-1.689000130E0
1.613782037E1,6.207000256E0,-1.056000042E1,-1.689000130E0
1.615782037E1,1.936950088E0,-8.893950462E0,2.523000002E0
1.617782037E1,1.936950088E0,-8.893950462E0,2.523000002E0
1.619782037E1,1.936950088E0,-8.893950462E0,2.523000002E0
1.621782037E1,1.936950088E0,-8.893950462E0,2.523000002E0
1.623782037E1,1.936950088E0,-8.893950462E0,2.523000002E0
1.625782037E1,-2.446950197E0,-6.577050209E0,-2.800050020E0
1.627782037E1,-2.446950197E0,-6.577050209E0,-2.800050020E0
1.629782037E1,-2.446950197E0,-6.577050209E0,-2.800050020E0
1.631782037E1,-2.446950197E0,-6.577050209E0,-2.800050020E0
1.633782037E1,-2.446950197E0,-6.577050209E0,-2.800050020E0
1.635782037E1,1.879950047E0,-7.419000149E0,-5.779500008E-1
1.637782037E1,1.879950047E0,-7.419000149E0,-5.779500008E-1
1.639782037E1,2.683950186E0,-8.664000511E0,-6.739500165E-1
1.641782037E1,2.683950186E0,-8.664000511E0,-6.739500165E-1
1.643782037E1,2.683950186E0,-8.664000511E0,-6.739500165E-1
1.645782037E1,2.683950186E0,-8.664000511E0,-6.739500165E-1
1.647782037E1,2.683950186E0,-8.664000511E0,-6.739500165E-1
1.649782037E1,7.110000253E-1,-8.452950478E0,-7.120500207E-1
1.651782037E1,7.110000253E-1,-8.452950478E0,-7.120500207E-1
1.653782037E1,7.110000253E-1,-8.452950478E0,-7.120500207E-1
1.655782037E1,7.110000253E-1,-8.452950478E0,-7.120500207E-1
1.657782037E1,7.110000253E-1,-8.452950478E0,-7.120500207E-1
1.659782037E1,7.110000253E-1,-8.452950478E0,-7.120500207E-1
1.661782037E1,7.110000253E-1,-8.452950478E0,-7.120500207E-1
1.663782037E1,4.885950089E0,-8.530050278E0,8.760000467E-1
1.665782037E1,4.885950089E0,-8.530050278E0,8.760000467E-1
1.667782037E1,4.885950089E0,-8.530050278E0,8.760000467E-1
1.669782037E1,4.885950089E0,-8.530050278E0,8.760000467E-1
1.671782037E1,4.885950089E0,-8.530050278E0,8.760000467E-1
1.673782037E1,7.701000214E0,-9.238950729E0,9.529500604E-1
1.675782037E1,7.701000214E0,-9.238950729E0,9.529500604E-1
1.677782037E1,7.720050335E0,-1.287705040E1,-5.824950218E0
1.677782037E1,7.720050335E0,-1.287705040E1,-5.824950218E0
1.681782037E1,7.720050335E0,-1.287705040E1,-5.824950218E0
1.683782037E1,1.267050028E0,-8.281050682E0,1.201950073E0
1.685782037E1,1.267050028E0,-8.281050682E0,1.201950073E0
1.687782037E1,-2.830500007E-1,-7.056000233E0,5.119500160E-1
1.689782037E1,-2.830500007E-1,-7.056000233E0,5.119500160E-1
1.691782037E1,-2.830500007E-1,-7.056000233E0,5.119500160E-1
1.693782037E1,6.000000238E-2,-1.113405037E1,2.464950085E0
1.695782037E1,6.000000238E-2,-1.113405037E1,2.464950085E0
1.697782037E1,1.936950088E0,-1.134495068E1,3.921000242E0
1.699782037E1,1.936950088E0,-1.134495068E1,3.921000242E0
1.701782037E1,1.936950088E0,-1.134495068E1,3.921000242E0
1.703782037E1,1.936950088E0,-1.134495068E1,3.921000242E0
1.705782037E1,1.936950088E0,-1.134495068E1,3.921000242E0
1.707782037E1,2.140500098E-1,-9.966000557E0,4.159500301E-1
1.709782037E1,2.140500098E-1,-9.966000557E0,4.159500301E-1
1.711782037E1,-2.140950203E0,-1.023405075E1,3.307950258E0
1.713782037E1,-2.140950203E0,-1.023405075E1,3.307950258E0
1.715782037E1,-2.140950203E0,-1.023405075E1,3.307950258E0
1.717782037E1,-3.538950205E0,-1.019595051E1,4.456950188E0
1.719782037E1,-3.538950205E0,-1.019595051E1,4.456950188E0
1.721782037E1,4.620000124E-1,-9.238950729E0,7.119000435E0
1.723782037E1,4.620000124E-1,-9.238950729E0,7.119000435E0
1.725782037E1,4.620000124E-1,-9.238950729E0,7.119000435E0
1.727782037E1,4.620000124E-1,-9.238950729E0,7.119000435E0
1.729782037E1,4.620000124E-1,-9.238950729E0,7.119000435E0
1.731782037E1,7.126050472E0,-1.149795055E1,4.170000076E0
1.733782037E1,7.126050472E0,-1.149795055E1,4.170000076E0
1.735782037E1,7.126050472E0,-1.149795055E1,4.170000076E0
1.737782037E1,7.126050472E0,-1.149795055E1,4.170000076E0
1.739782037E1,7.126050472E0,-1.149795055E1,4.170000076E0
1.741782037E1,1.168395042E1,-9.219000816E0,-2.128950119E0
1.743782037E1,1.168395042E1,-9.219000816E0,-2.128950119E0
1.745782037E1,6.954000473E0,-8.013000488E0,-3.451050282E0
1.747782037E1,6.954000473E0,-8.013000488E0,-3.451050282E0
1.749782037E1,6.954000473E0,-8.013000488E0,-3.451050282E0
1.751782037E1,6.954000473E0,-8.013000488E0,-3.451050282E0
1.753782037E1,6.954000473E0,-8.013000488E0,-3.451050282E0
1.755782037E1,1.936950088E0,-1.337505054E1,-1.593000054E0
1.757782037E1,1.936950088E0,-1.337505054E1,-1.593000054E0
1.759782037E1,1.936950088E0,-1.337505054E1,-1.593000054E0
1.761782037E1,1.936950088E0,-1.337505054E1,-1.593000054E0
1.763782037E1,1.936950088E0,-1.337505054E1,-1.593000054E0
1.765782037E1,-7.429500222E-1,-8.491950035E0,3.970500231E-1
1.767782037E1,-7.429500222E-1,-8.491950035E0,3.970500231E-1
1.769782037E1,-7.429500222E-1,-8.491950035E0,3.970500231E-1
1.771782037E1,-7.429500222E-1,-8.491950035E0,3.970500231E-1
1.773782037E1,-7.429500222E-1,-8.491950035E0,3.970500231E-1
1.775782037E1,3.105000257E0,-7.305000305E0,9.340500236E-1
1.777782037E1,3.105000257E0,-7.305000305E0,9.340500236E-1
1.779782037E1,3.526050091E0,-5.773050308E0,-1.759500057E-1
1.781782037E1,3.526050091E0,-5.773050308E0,-1.759500057E-1
1.783782037E1,3.526050091E0,-5.773050308E0,-1.759500057E-1
1.785782037E1,3.526050091E0,-5.773050308E0,-1.759500057E-1
1.787782037E1,3.526050091E0,-5.773050308E0,-1.759500057E-1
1.789782037E1,4.311000347E0,-5.868000507E0,-5.779500008E-1
1.791782037E1,4.311000347E0,-5.868000507E0,-5.779500008E-1
1.793782037E1,5.632950306E0,-5.101950169E0,4.740000367E-1
1.795782037E1,5.632950306E0,-5.101950169E0,4.740000367E-1
1.797782037E1,5.632950306E0,-5.101950169E0,4.740000367E-1
1.799782037E1,2.665050030E0,-5.734050274E0,-7.510500550E-1
1.801782037E1,2.665050030E0,-5.734050274E0,-7.510500550E-1
1.803782037E1,2.875050068E0,-7.956000328E0,1.087050080E0
1.805782037E1,2.875050068E0,-7.956000328E0,1.087050080E0
1.807782037E1,2.875050068E0,-7.956000328E0,1.087050080E0
1.809782037E1,2.875050068E0,-7.956000328E0,1.087050080E0
1.811782037E1,2.875050068E0,-7.956000328E0,1.087050080E0
1.813782037E1,6.763050556E0,-1.881300163E1,-7.663050175E0
1.815782037E1,6.763050556E0,-1.881300163E1,-7.663050175E0
1.817782037E1,6.763050556E0,-1.881300163E1,-7.663050175E0
1.819782037E1,6.763050556E0,-1.881300163E1,-7.663050175E0
1.821782037E1,6.763050556E0,-1.881300163E1,-7.663050175E0
1.823782037E1,2.703000069E0,-1.385400105E1,3.040050030E0
1.825782037E1,2.703000069E0,-1.385400105E1,3.040050030E0
1.827782037E1,9.990000725E-1,-1.341300106E1,2.638050079E0
1.829782037E1,9.990000725E-1,-1.341300106E1,2.638050079E0
1.831782037E1,9.990000725E-1,-1.341300106E1,2.638050079E0
1.833782037E1,9.990000725E-1,-1.341300106E1,2.638050079E0
1.835782037E1,9.990000725E-1,-1.341300106E1,2.638050079E0
1.837782037E1,1.765050054E0,-5.236050129E0,-3.642000198E0
1.839782037E1,1.765050054E0,-5.236050129E0,-3.642000198E0
1.841782037E1,1.765050054E0,-5.236050129E0,-3.642000198E0
1.843782037E1,1.765050054E0,-5.236050129E0,-3.642000198E0
1.845782037E1,1.765050054E0,-5.236050129E0,-3.642000198E0
1.847782037E1,6.763050556E0,-4.852950096E0,-4.050000105E-3
1.849782037E1,6.763050556E0,-4.852950096E0,-4.050000105E-3
1.851782037E1,6.763050556E0,-4.852950096E0,-4.050000105E-3
1.853782037E1,6.763050556E0,-4.852950096E0,-4.050000105E-3
1.855782037E1,6.763050556E0,-4.852950096E0,-4.050000105E-3
1.857782037E1,3.832950115E0,-7.458000183E0,2.140050173E0
1.859782037E1,3.832950115E0,-7.458000183E0,2.140050173E0
1.861782037E1,3.775050163E0,-7.342950344E0,1.240050077E0
1.863782037E1,3.775050163E0,-7.342950344E0,1.240050077E0
1.865782037E1,3.775050163E0,-7.342950344E0,1.240050077E0
1.867782037E1,3.775050163E0,-7.342950344E0,1.240050077E0
1.869782037E1,3.775050163E0,-7.342950344E0,1.240050077E0
1.871782037E1,6.877050400E0,-1.343205070E1,-2.244000196E0
1.873782037E1,6.877050400E0,-1.343205070E1,-2.244000196E0
1.875782037E1,8.850000381E0,-1.626600075E1,-3.870000243E-1
1.877782037E1,8.850000381E0,-1.626600075E1,-3.870000243E-1
1.879782037E1,8.850000381E0,-1.626600075E1,-3.870000243E-1
1.881782037E1,4.867050171E0,-1.768305016E1,-1.950000077E-1
1.883782037E1,4.867050171E0,-1.768305016E1,-1.950000077E-1
1.885782037E1,1.822050095E0,-8.722050667E0,-4.060500264E-1
1.887782037E1,1.822050095E0,-8.722050667E0,-4.060500264E-1
1.889782037E1,1.822050095E0,-8.722050667E0,-4.060500264E-1
1.891782037E1,1.822050095E0,-8.722050667E0,-4.060500264E-1
1.893782037E1,1.822050095E0,-8.722050667E0,-4.060500264E-1
1.895782037E1,4.050000310E-1,-5.983050346E0,-4.440000355E-1
1.897782037E1,4.050000310E-1,-5.983050346E0,-4.440000355E-1
1.899782037E1,4.050000310E-1,-5.983050346E0,-4.440000355E-1
1.901782037E1,4.050000310E-1,-5.983050346E0,-4.440000355E-1
1.903782037E1,4.050000310E-1,-5.983050346E0,-4.440000355E-1
1.905782037E1,5.010000467E-1,-5.236050129E0,5.890500546E-1
1.907782037E1,5.010000467E-1,-5.236050129E0,5.890500546E-1
1.909782037E1,2.818050146E0,-5.332050323E0,-1.918950081E0
1.911782037E1,2.818050146E0,-5.332050323E0,-1.918950081E0
1.913782037E1,2.818050146E0,-5.332050323E0,-1.918950081E0
1.915782037E1,2.818050146E0,-5.332050323E0,-1.918950081E0
1.917782037E1,2.818050146E0,-5.332050323E0,-1.918950081E0
1.919782037E1,6.016050339E0,-1.291500092E1,-1.785000086E0
1.921782037E1,6.016050339E0,-1.291500092E1,-1.785000086E0
1.923782037E1,6.016050339E0,-1.291500092E1,-1.785000086E0
1.925782037E1,6.016050339E0,-1.291500092E1,-1.785000086E0
1.927782037E1,6.016050339E0,-1.291500092E1,-1.785000086E0
1.929782037E1,2.416050196E0,-9.660000801E0,-1.726950049E0
1.931782037E1,2.416050196E0,-9.660000801E0,-1.726950049E0
1.933782037E1,6.571050167E0,-8.013000488E0,8.190000653E-1
1.935782037E1,6.571050167E0,-8.013000488E0,8.190000653E-1
1.937782037E1,6.571050167E0,-8.013000488E0,8.190000653E-1
1.939782037E1,7.681950569E0,-9.909000397E0,1.872000098E0
1.941782037E1,7.681950569E0,-9.909000397E0,1.872000098E0
1.943782037E1,3.238950253E0,-1.188105011E1,1.009950042E0
1.945782037E1,3.238950253E0,-1.188105011E1,1.009950042E0
1.947782037E1,3.238950253E0,-1.188105011E1,1.009950042E0
1.949782037E1,3.238950253E0,-1.188105011E1,1.009950042E0
1.951782037E1,3.238950253E0,-1.188105011E1,1.009950042E0
1.953782037E1,1.401000023E0,-1.523205090E1,4.936050415E0
1.955782037E1,1.401000023E0,-1.523205090E1,4.936050415E0
1.957782037E1,1.401000023E0,-1.523205090E1,4.936050415E0
1.959782037E1,1.401000023E0,-1.523205090E1,4.936050415E0
1.961782037E1,1.401000023E0,-1.523205090E1,4.936050415E0
1.963782037E1,4.963050365E0,-8.797950745E0,-1.095000029E0
1.965782037E1,4.963050365E0,-8.797950745E0,-1.095000029E0
1.967782037E1,4.216050148E0,-6.175050259E0,-4.630500078E-1
1.969782037E1,4.216050148E0,-6.175050259E0,-4.630500078E-1
1.971782037E1,4.216050148E0,-6.175050259E0,-4.630500078E-1
1.973782037E1,4.216050148E0,-6.175050259E0,-4.630500078E-1
1.975782037E1,4.216050148E0,-6.175050259E0,-4.630500078E-1
1.977782037E1,3.048000097E0,-5.811000347E0,-5.020500422E-1
1.979782037E1,3.048000097E0,-5.811000347E0,-5.020500422E-1
1.981782037E1,3.048000097E0,-5.811000347E0,-5.020500422E-1
1.983782037E1,3.048000097E0,-5.811000347E0,-5.020500422E-1
1.985782037E1,3.048000097E0,-5.811000347E0,-5.020500422E-1
1.987782037E1,3.354000092E0,-4.795950413E0,3.270000219E0
1.989782037E1,3.354000092E0,-4.795950413E0,3.270000219E0
1.991782037E1,8.447999954E0,-8.530050278E0,6.850500107E-1
1.993782037E1,8.447999954E0,-8.530050278E0,6.850500107E-1
1.995782037E1,6.475050449E0,-1.278105068E1,1.564950109E0
1.997782037E1,6.475050449E0,-1.278105068E1,1.564950109E0
1.999782037E1,6.475050449E0,-1.278105068E1,1.564950109E0
2.001782037E1,5.614050388E0,-1.787505150E1,-3.240000248E0
2.003782037E1,5.614050388E0,-1.787505150E1,-3.240000248E0
2.005782037E1,5.614050388E0,-1.787505150E1,-3.240000248E0
2.007782037E1,5.614050388E0,-1.787505150E1,-3.240000248E0
2.009782037E1,5.614050388E0,-1.787505150E1,-3.240000248E0
2.011782037E1,2.587950230E0,-8.166000366E0,-6.550500393E-1
2.013782037E1,2.587950230E0,-8.166000366E0,-6.550500393E-1
2.015782037E1,2.454000235E0,-7.477050304E0,-2.140500098E-1
2.017782037E1,2.454000235E0,-7.477050304E0,-2.140500098E-1
2.019782037E1,2.454000235E0,-7.477050304E0,-2.140500098E-1
2.021782037E1,2.454000235E0,-7.477050304E0,-2.140500098E-1
2.023782037E1,2.454000235E0,-7.477050304E0,-2.140500098E-1
2.025782037E1,6.349500418E-1,-5.752950191E0,-1.570500135E-1
2.027782037E1,6.349500418E-1,-5.752950191E0,-1.570500135E-1
2.029782037E1,6.349500418E-1,-5.752950191E0,-1.570500135E-1
2.031782037E1,6.349500418E-1,-5.752950191E0,-1.570500135E-1
2.033782037E1,6.349500418E-1,-5.752950191E0,-1.570500135E-1
2.035782037E1,6.349500418E-1,-5.752950191E0,-1.570500135E-1
2.037782037E1,6.349500418E-1,-5.752950191E0,-1.570500135E-1
2.039782037E1,6.349500418E-1,-5.752950191E0,-1.570500135E-1
2.041782037E1,6.349500418E-1,-5.752950191E0,-1.570500135E-1
2.043782037E1,6.349500418E-1,-5.752950191E0,-1.570500135E-1
2.045782037E1,5.499000072E0,-1.027305031E1,-5.728950500E0
2.047782037E1,5.499000072E0,-1.027305031E1,-5.728950500E0
2.049782037E1,5.058000088E0,-6.960000515E0,-1.950000077E-1
2.051782037E1,5.058000088E0,-6.960000515E0,-1.950000077E-1
2.053782037E1,5.058000088E0,-6.960000515E0,-1.950000077E-1
2.055782037E1,5.058000088E0,-6.960000515E0,-1.950000077E-1
2.057782037E1,5.058000088E0,-6.960000515E0,-1.950000077E-1
2.059782037E1,5.058000088E0,-6.960000515E0,-1.950000077E-1
2.061782037E1,5.058000088E0,-6.960000515E0,-1.950000077E-1
2.063782037E1,5.058000088E0,-6.960000515E0,-1.950000077E-1
2.065782037E1,5.058000088E0,-6.960000515E0,-1.950000077E-1
2.067782037E1,5.058000088E0,-6.960000515E0,-1.950000077E-1
2.069782037E1,4.042950153E0,-8.530050278E0,-6.739500165E-1
2.071782037E1,4.042950153E0,-8.530050278E0,-6.739500165E-1
2.073782037E1,4.042950153E0,-8.530050278E0,-6.739500165E-1
2.075782037E1,4.042950153E0,-8.530050278E0,-6.739500165E-1
2.077782037E1,4.042950153E0,-8.530050278E0,-6.739500165E-1
2.079782037E1,4.042950153E0,-8.530050278E0,-6.739500165E-1
2.081782037E1,4.042950153E0,-8.530050278E0,-6.739500165E-1
2.083782037E1,3.660000086E0,-1.435095024E1,3.364950180E0
2.085782037E1,3.660000086E0,-1.435095024E1,3.364950180E0
2.087782037E1,3.660000086E0,-1.435095024E1,3.364950180E0
2.089782037E1,3.660000086E0,-1.435095024E1,3.364950180E0
2.091782037E1,3.660000086E0,-1.435095024E1,3.364950180E0
2.093782037E1,3.067050219E0,-1.310700035E1,2.446050167E0
2.095782037E1,3.067050219E0,-1.310700035E1,2.446050167E0
2.097782037E1,1.036949992E0,-8.779050827E0,1.834050059E0
2.099782037E1,1.036949992E0,-8.779050827E0,1.834050059E0
2.101782037E1,1.036949992E0,-8.779050827E0,1.834050059E0
2.103782037E1,1.036949992E0,-8.779050827E0,1.834050059E0
2.105782037E1,1.036949992E0,-8.779050827E0,1.834050059E0
2.107782037E1,6.730500460E-1,-6.060000420E0,-7.890000343E-1
2.109782037E1,6.730500460E-1,-6.060000420E0,-7.890000343E-1
2.111782037E1,6.730500460E-1,-6.060000420E0,-7.890000343E-1
2.113782037E1,6.730500460E-1,-6.060000420E0,-7.890000343E-1
2.115782037E1,6.730500460E-1,-6.060000420E0,-7.890000343E-1
2.117782037E1,6.303000450E0,-7.458000183E0,2.250000089E-1
2.119782037E1,6.303000450E0,-7.458000183E0,2.250000089E-1
2.121782037E1,5.536950111E0,-7.113000393E0,1.048050046E0
2.123782037E1,5.536950111E0,-7.113000393E0,1.048050046E0
2.125782037E1,5.536950111E0,-7.113000393E0,1.048050046E0
2.127782037E1,7.240950108E0,-8.109000206E0,1.546050072E0
2.129782037E1,7.240950108E0,-8.109000206E0,1.546050072E0
2.131782037E1,7.911000252E0,-1.764495087E1,-7.995000482E-2
2.133782037E1,7.911000252E0,-1.764495087E1,-7.995000482E-2
2.135782037E1,7.911000252E0,-1.764495087E1,-7.995000482E-2
2.137782037E1,7.911000252E0,-1.764495087E1,-7.995000482E-2
2.139782037E1,7.911000252E0,-1.764495087E1,-7.995000482E-2
2.141782037E1,-1.777050138E0,-1.197705078E1,-3.316950083E0
2.143782037E1,-1.777050138E0,-1.197705078E1,-3.316950083E0
2.145782037E1,-1.777050138E0,-1.197705078E1,-3.316950083E0
2.147782037E1,-1.777050138E0,-1.197705078E1,-3.316950083E0
2.149782037E1,-1.777050138E0,-1.197705078E1,-3.316950083E0
2.151782037E1,1.939500123E-1,-7.552950382E0,-7.510500550E-1
2.153782037E1,1.939500123E-1,-7.552950382E0,-7.510500550E-1
2.155782037E1,6.000000238E-2,-6.901950359E0,2.820000052E-1
2.157782037E1,6.000000238E-2,-6.901950359E0,2.820000052E-1
2.159782037E1,6.000000238E-2,-6.901950359E0,2.820000052E-1
2.161782037E1,6.000000238E-2,-6.901950359E0,2.820000052E-1
2.163782037E1,6.000000238E-2,-6.901950359E0,2.820000052E-1
2.165782037E1,-9.150000215E-1,-7.591950417E0,2.025000095E0
2.167782037E1,-9.150000215E-1,-7.591950417E0,2.025000095E0
2.169782037E1,9.600000381E-1,-8.166000366E0,3.270000219E0
2.171782037E1,9.600000381E-1,-8.166000366E0,3.270000219E0
2.173782037E1,9.600000381E-1,-8.166000366E0,3.270000219E0
2.175782037E1,9.156000137E0,-1.153605080E1,7.990500331E-1
2.177782037E1,9.156000137E0,-1.153605080E1,7.990500331E-1
2.179782037E1,9.156000137E0,-1.153605080E1,7.990500331E-1
2.181782037E1,9.156000137E0,-1.153605080E1,7.990500331E-1
2.183782037E1,9.156000137E0,-1.153605080E1,7.990500331E-1
2.185782037E1,9.156000137E0,-1.153605080E1,7.990500331E-1
2.187782037E1,9.156000137E0,-1.153605080E1,7.990500331E-1
2.189782037E1,2.722050190E0,-9.487950325E0,-1.171950102E0
2.191782037E1,2.722050190E0,-9.487950325E0,-1.171950102E0
2.193782037E1,2.722050190E0,-9.487950325E0,-1.171950102E0
2.195782037E1,2.722050190E0,-9.487950325E0,-1.171950102E0
2.197782037E1,2.722050190E0,-9.487950325E0,-1.171950102E0
2.199782037E1,1.381950021E0,-1.077000046E1,2.025000095E0
2.201782037E1,1.381950021E0,-1.077000046E1,2.025000095E0
2.203782037E1,-4.993950367E0,-7.534050465E0,-2.377950191E0
2.205782037E1,-4.993950367E0,-7.534050465E0,-2.377950191E0
2.207782037E1,-4.993950367E0,-7.534050465E0,-2.377950191E0
2.209782037E1,-5.899500251E-1,-1.006200027E1,4.954950333E0
2.211782037E1,-5.899500251E-1,-1.006200027E1,4.954950333E0
2.213782037E1,3.090000153E-1,-1.057905006E1,4.264950275E0
2.215782037E1,3.090000153E-1,-1.057905006E1,4.264950275E0
2.217782037E1,3.090000153E-1,-1.057905006E1,4.264950275E0
2.219782037E1,3.090000153E-1,-1.057905006E1,4.264950275E0
2.221782037E1,3.090000153E-1,-1.057905006E1,4.264950275E0
2.223782037E1,2.607000113E0,-9.028050423E0,-8.080500364E-1
2.225782037E1,2.607000113E0,-9.028050423E0,-8.080500364E-1
2.227782037E1,2.856000185E0,-8.855999947E0,3.289050102E0
2.229782037E1,2.856000185E0,-8.855999947E0,3.289050102E0
2.231782037E1,2.856000185E0,-8.855999947E0,3.289050102E0
2.233782037E1,3.928050280E0,-9.526050568E0,2.734050035E0
2.235782037E1,3.928050280E0,-9.526050568E0,2.734050035E0
2.237782037E1,4.848000050E0,-9.468000412E0,9.139500260E-1
2.239782037E1,4.848000050E0,-9.468000412E0,9.139500260E-1
2.241782037E1,4.848000050E0,-9.468000412E0,9.139500260E-1
2.243782037E1,4.848000050E0,-9.468000412E0,9.139500260E-1
2.245782037E1,4.848000050E0,-9.468000412E0,9.139500260E-1
2.247782037E1,4.350000381E0,-8.722050667E0,1.393050075E0
2.249782037E1,4.350000381E0,-8.722050667E0,1.393050075E0
2.251782037E1,4.350000381E0,-8.722050667E0,1.393050075E0
2.253782037E1,4.350000381E0,-8.722050667E0,1.393050075E0
2.255782037E1,4.350000381E0,-8.722050667E0,1.393050075E0
2.257782037E1,4.350000381E0,-8.722050667E0,1.393050075E0
2.259782037E1,4.350000381E0,-8.722050667E0,1.393050075E0
2.261782037E1,4.350000381E0,-8.722050667E0,1.393050075E0
2.263782037E1,4.350000381E0,-8.722050667E0,1.393050075E0
2.265782037E1,4.350000381E0,-8.722050667E0,1.393050075E0
2.267782037E1,4.350000381E0,-8.722050667E0,1.393050075E0
2.269782037E1,4.350000381E0,-8.722050667E0,1.393050075E0
2.271782037E1,2.665050030E0,-1.065600014E1,1.623000026E0
2.273782037E1,2.665050030E0,-1.065600014E1,1.623000026E0
2.275782037E1,-2.256000042E0,-1.063605022E1,-1.459050059E0
2.277782037E1,-2.256000042E0,-1.063605022E1,-1.459050059E0
2.279782037E1,-2.256000042E0,-1.063605022E1,-1.459050059E0
2.281782037E1,-1.642950058E0,-1.281900024E1,1.182000041E0
2.283782037E1,-1.642950058E0,-1.281900024E1,1.182000041E0
2.285782037E1,1.516050100E0,-8.626049995E0,1.144050002E0
2.287782037E1,1.516050100E0,-8.626049995E0,1.144050002E0
2.289782037E1,1.516050100E0,-8.626049995E0,1.144050002E0
2.291782037E1,1.860000134E0,-6.403950214E0,-2.719500065E-1
2.293782037E1,1.860000134E0,-6.403950214E0,-2.719500065E-1
2.295782037E1,2.089950085E0,-7.036050320E0,5.295000225E-2
2.297782037E1,2.089950085E0,-7.036050320E0,5.295000225E-2
2.299782037E1,2.089950085E0,-7.036050320E0,5.295000225E-2
2.301782037E1,2.089950085E0,-7.036050320E0,5.295000225E-2
2.303782037E1,2.089950085E0,-7.036050320E0,5.295000225E-2
2.305782037E1,5.154000282E0,-8.644950867E0,5.319000244E0
2.307782037E1,5.154000282E0,-8.644950867E0,5.319000244E0
2.309782037E1,6.150000095E0,-1.033005047E1,3.097050190E0
2.311782037E1,6.150000095E0,-1.033005047E1,3.097050190E0
2.313782037E1,6.150000095E0,-1.033005047E1,3.097050190E0
2.315782037E1,1.049700069E1,-1.094295025E1,-6.973950386E0
2.317782037E1,1.049700069E1,-1.094295025E1,-6.973950386E0
2.319782037E1,6.877050400E0,-1.324095058E1,2.503950119E0
2.321782037E1,6.877050400E0,-1.324095058E1,2.503950119E0
2.323782037E1,3.871050119E0,-1.042605019E1,1.564950109E0
2.325782037E1,3.871050119E0,-1.042605019E1,1.564950109E0
2.327782037E1,3.871050119E0,-1.042605019E1,1.564950109E0
2.329782037E1,3.871050119E0,-1.042605019E1,1.564950109E0
2.331782037E1,3.871050119E0,-1.042605019E1,1.564950109E0
2.333782037E1,3.871050119E0,-1.042605019E1,1.564950109E0
2.335782037E1,3.871050119E0,-1.042605019E1,1.564950109E0
2.337782037E1,3.871050119E0,-1.042605019E1,1.564950109E0
2.339782037E1,-1.528050065E0,-1.220700073E1,4.399050236E0
2.341782037E1,-1.528050065E0,-1.220700073E1,4.399050236E0
2.343782037E1,-6.660000086E-1,-9.009000778E0,1.527000070E0
2.345782037E1,-6.660000086E-1,-9.009000778E0,1.527000070E0
2.347782037E1,-6.660000086E-1,-9.009000778E0,1.527000070E0
2.349782037E1,-6.660000086E-1,-9.009000778E0,1.527000070E0
2.351782037E1,-6.660000086E-1,-9.009000778E0,1.527000070E0
2.353782037E1,4.216050148E0,-9.679050446E0,2.059500068E-1
2.355782037E1,4.216050148E0,-9.679050446E0,2.059500068E-1
2.357782037E1,4.216050148E0,-9.679050446E0,2.059500068E-1
2.359782037E1,4.216050148E0,-9.679050446E0,2.059500068E-1
2.361782037E1,4.216050148E0,-9.679050446E0,2.059500068E-1
2.363782037E1,5.842950344E0,-7.975050449E0,-7.309500575E-1
2.365782037E1,5.842950344E0,-7.975050449E0,-7.309500575E-1
2.367782037E1,5.842950344E0,-7.975050449E0,-7.309500575E-1
2.369782037E1,5.842950344E0,-7.975050449E0,-7.309500575E-1
2.371782037E1,5.842950344E0,-7.975050449E0,-7.309500575E-1
2.373782037E1,5.842950344E0,-7.975050449E0,-7.309500575E-1
2.375782037E1,5.842950344E0,-7.975050449E0,-7.309500575E-1
2.377782037E1,5.842950344E0,-7.975050449E0,-7.309500575E-1
2.379782037E1,5.842950344E0,-7.975050449E0,-7.309500575E-1
2.381782037E1,5.842950344E0,-7.975050449E0,-7.309500575E-1
2.383782037E1,5.842950344E0,-7.975050449E0,-7.309500575E-1
2.385782037E1,5.842950344E0,-7.975050449E0,-7.309500575E-1
2.387782037E1,4.693950176E0,-6.691950321E0,1.048050046E0
2.389782037E1,4.693950176E0,-6.691950321E0,1.048050046E0
2.391782037E1,3.793950081E0,-6.403950214E0,-5.400000215E-1
2.393782037E1,3.793950081E0,-6.403950214E0,-5.400000215E-1
2.395782037E1,3.793950081E0,-6.403950214E0,-5.400000215E-1
2.397782037E1,5.785950184E0,-1.036800003E1,-1.822950125E0
2.399782037E1,5.785950184E0,-1.036800003E1,-1.822950125E0
2.401782037E1,6.820050240E0,-1.873695183E1,-2.991000175E0
2.403782037E1,6.820050240E0,-1.873695183E1,-2.991000175E0
2.405782037E1,6.820050240E0,-1.873695183E1,-2.991000175E0
2.407782037E1,6.820050240E0,-1.873695183E1,-2.991000175E0
2.409782037E1,6.820050240E0,-1.873695183E1,-2.991000175E0
2.411782037E1,3.297000170E0,-8.109000206E0,-1.555050015E0
2.413782037E1,3.297000170E0,-8.109000206E0,-1.555050015E0
2.415782037E1,3.297000170E0,-8.109000206E0,-1.555050015E0
2.417782037E1,3.297000170E0,-8.109000206E0,-1.555050015E0
2.419782037E1,3.297000170E0,-8.109000206E0,-1.555050015E0
2.421782037E1,-6.660000086E-1,-7.495950222E0,-6.739500165E-1
2.423782037E1,-6.660000086E-1,-7.495950222E0,-6.739500165E-1
2.425782037E1,-1.068000078E0,-4.432050228E0,3.019500077E-1
2.427782037E1,-1.068000078E0,-4.432050228E0,3.019500077E-1
2.429782037E1,-1.068000078E0,-4.432050228E0,3.019500077E-1
2.431782037E1,-1.068000078E0,-4.432050228E0,3.019500077E-1
2.433782037E1,-1.068000078E0,-4.432050228E0,3.019500077E-1
2.435782037E1,3.507000208E0,-2.497950077E0,-1.189500093E-1
2.437782037E1,3.507000208E0,-2.497950077E0,-1.189500093E-1
2.439782037E1,9.463050842E0,-1.080900097E1,8.569500446E-1
2.441782037E1,9.463050842E0,-1.080900097E1,8.569500446E-1
2.443782037E1,9.463050842E0,-1.080900097E1,8.569500446E-1
2.445782037E1,3.889950275E0,-1.115295029E1,-5.518950462E0
2.447782037E1,3.889950275E0,-1.115295029E1,-5.518950462E0
2.449782037E1,3.889950275E0,-1.115295029E1,-5.518950462E0
2.451782037E1,3.889950275E0,-1.115295029E1,-5.518950462E0
2.453782037E1,3.889950275E0,-1.115295029E1,-5.518950462E0
2.455782037E1,3.889950275E0,-1.115295029E1,-5.518950462E0
2.457782037E1,3.889950275E0,-1.115295029E1,-5.518950462E0
2.459782037E1,3.889950275E0,-1.115295029E1,-5.518950462E0
2.461782037E1,3.889950275E0,-1.115295029E1,-5.518950462E0
2.463782037E1,3.889950275E0,-1.115295029E1,-5.518950462E0
2.465782037E1,3.889950275E0,-1.115295029E1,-5.518950462E0
2.467782037E1,3.889950275E0,-1.115295029E1,-5.518950462E0
2.469782037E1,-6.280500293E-1,-1.201500034E1,9.139500260E-1
2.471782037E1,-6.280500293E-1,-1.201500034E1,9.139500260E-1
2.473782037E1,4.429500103E-1,-9.640950203E0,1.048050046E0
2.475782037E1,4.429500103E-1,-9.640950203E0,1.048050046E0
2.477782037E1,4.429500103E-1,-9.640950203E0,1.048050046E0
2.479782037E1,1.650000095E0,-6.328050137E0,1.336050034E0
2.481782037E1,1.650000095E0,-6.328050137E0,1.336050034E0
2.483782037E1,1.650000095E0,-6.328050137E0,1.336050034E0
2.485782037E1,1.650000095E0,-6.328050137E0,1.336050034E0
2.487782037E1,1.650000095E0,-6.328050137E0,1.336050034E0
2.489782037E1,1.650000095E0,-6.328050137E0,1.336050034E0
2.491782037E1,1.650000095E0,-6.328050137E0,1.336050034E0
2.493782037E1,5.460000038E0,-4.297950268E0,3.405000269E-2
2.495782037E1,5.460000038E0,-4.297950268E0,3.405000269E-2
2.497782037E1,3.085950136E0,-7.936050415E0,2.311950207E0
2.499782037E1,3.085950136E0,-7.936050415E0,2.311950207E0
2.501782037E1,3.085950136E0,-7.936050415E0,2.311950207E0
2.503782037E1,3.660000086E0,-7.495950222E0,3.211950064E0
2.505782037E1,3.660000086E0,-7.495950222E0,3.211950064E0
2.507782037E1,3.316050053E0,-5.064000130E0,1.048050046E0
2.509782037E1,3.316050053E0,-5.064000130E0,1.048050046E0
2.511782037E1,3.316050053E0,-5.064000130E0,1.048050046E0
2.513782037E1,3.316050053E0,-5.064000130E0,1.048050046E0
2.515782037E1,3.316050053E0,-5.064000130E0,1.048050046E0
2.517782037E1,3.316050053E0,-5.064000130E0,1.048050046E0
2.519782037E1,3.316050053E0,-5.064000130E0,1.048050046E0
2.521782037E1,3.316050053E0,-5.064000130E0,1.048050046E0
2.523782037E1,3.316050053E0,-5.064000130E0,1.048050046E0
2.525782037E1,3.316050053E0,-5.064000130E0,1.048050046E0
2.527782037E1,1.803000093E0,-8.224050522E0,-2.140500098E-1
2.529782037E1,1.803000093E0,-8.224050522E0,-2.140500098E-1
2.531782037E1,1.438950062E0,-8.797950745E0,-8.850000501E-1
2.533782037E1,1.438950062E0,-8.797950745E0,-8.850000501E-1
2.535782037E1,1.438950062E0,-8.797950745E0,-8.850000501E-1
2.537782037E1,1.438950062E0,-8.797950745E0,-8.850000501E-1
2.539782037E1,1.438950062E0,-8.797950745E0,-8.850000501E-1
2.541782037E1,2.710500062E-1,-4.260000229E0,1.201950073E0
2.543782037E1,2.710500062E-1,-4.260000229E0,1.201950073E0
2.545782037E1,2.550000191E0,-2.479050159E0,1.395000052E-2
2.547782037E1,2.550000191E0,-2.479050159E0,1.395000052E-2
2.549782037E1,2.550000191E0,-2.479050159E0,1.395000052E-2
2.551782037E1,2.550000191E0,-2.479050159E0,1.395000052E-2
2.553782037E1,2.550000191E0,-2.479050159E0,1.395000052E-2
2.555782037E1,2.550000191E0,-2.479050159E0,1.395000052E-2
2.557782037E1,2.550000191E0,-2.479050159E0,1.395000052E-2
2.559782037E1,2.550000191E0,-2.479050159E0,1.395000052E-2
2.561782037E1,2.971050024E0,-1.257105064E1,-3.853050232E0
2.563782037E1,2.971050024E0,-1.257105064E1,-3.853050232E0
2.565782037E1,2.971050024E0,-1.257105064E1,-3.853050232E0
2.567782037E1,2.971050024E0,-1.257105064E1,-3.853050232E0
2.569782037E1,2.971050024E0,-1.257105064E1,-3.853050232E0
2.571782037E1,2.971050024E0,-1.257105064E1,-3.853050232E0
2.573782037E1,2.971050024E0,-1.257105064E1,-3.853050232E0
2.575782037E1,5.977050304E0,-1.121100044E1,2.044049978E0
2.577782037E1,5.977050304E0,-1.121100044E1,2.044049978E0
2.579782037E1,5.748000145E0,-1.437105083E1,3.058950186E0
2.581782037E1,5.748000145E0,-1.437105083E1,3.058950186E0
2.583782037E1,5.748000145E0,-1.437105083E1,3.058950186E0
2.585782037E1,6.207000256E0,-1.854495049E1,2.025000095E0
2.587782037E1,6.207000256E0,-1.854495049E1,2.025000095E0
2.589782037E1,1.860000134E0,-9.966000557E0,3.499050140E0
2.591782037E1,1.860000134E0,-9.966000557E0,3.499050140E0
2.593782037E1,1.860000134E0,-9.966000557E0,3.499050140E0
2.595782037E1,1.860000134E0,-9.966000557E0,3.499050140E0
2.597782037E1,1.860000134E0,-9.966000557E0,3.499050140E0
2.599782037E1,1.093950033E0,-7.956000328E0,1.144050002E0
2.601782037E1,1.093950033E0,-7.956000328E0,1.144050002E0
2.603782037E1,1.093950033E0,-7.956000328E0,1.144050002E0
2.605782037E1,1.093950033E0,-7.956000328E0,1.144050002E0
2.607782037E1,1.093950033E0,-7.956000328E0,1.144050002E0
2.609782037E1,7.318050385E0,-5.734050274E0,-1.383000016E0
2.611782037E1,7.318050385E0,-5.734050274E0,-1.383000016E0
2.613782037E1,5.709000111E0,-5.599950314E0,-4.050000105E-3
2.615782037E1,5.709000111E0,-5.599950314E0,-4.050000105E-3
2.617782037E1,5.709000111E0,-5.599950314E0,-4.050000105E-3
2.619782037E1,5.709000111E0,-5.599950314E0,-4.050000105E-3
2.621782037E1,5.709000111E0,-5.599950314E0,-4.050000105E-3
2.623782037E1,4.848000050E0,-7.897950172E0,1.162950039E0
2.625782037E1,4.848000050E0,-7.897950172E0,1.162950039E0
2.627782037E1,4.848000050E0,-7.897950172E0,1.162950039E0
2.629782037E1,4.848000050E0,-7.897950172E0,1.162950039E0
2.631782037E1,4.848000050E0,-7.897950172E0,1.162950039E0
2.633782037E1,8.218050003E0,-1.167105103E1,8.380500674E-1
2.635782037E1,8.218050003E0,-1.167105103E1,8.380500674E-1
2.637782037E1,5.230950356E0,-1.643895149E1,-1.651050091E0
2.639782037E1,5.230950356E0,-1.643895149E1,-1.651050091E0
2.641782037E1,5.230950356E0,-1.643895149E1,-1.651050091E0
2.643782037E1,5.230950356E0,-1.643895149E1,-1.651050091E0
2.645782037E1,5.230950356E0,-1.643895149E1,-1.651050091E0
2.647782037E1,3.603000164E0,-8.626049995E0,-8.460000157E-1
2.649782037E1,3.603000164E0,-8.626049995E0,-8.460000157E-1
2.651782037E1,6.763050556E0,-8.740950584E0,-1.383000016E0
2.653782037E1,6.763050556E0,-8.740950584E0,-1.383000016E0
2.655782037E1,6.763050556E0,-8.740950584E0,-1.383000016E0
2.657782037E1,6.763050556E0,-8.740950584E0,-1.383000016E0
2.659782037E1,6.763050556E0,-8.740950584E0,-1.383000016E0
2.661782037E1,6.763050556E0,-8.740950584E0,-1.383000016E0
2.663782037E1,6.763050556E0,-8.740950584E0,-1.383000016E0
2.665782037E1,6.763050556E0,-8.740950584E0,-1.383000016E0
2.667782037E1,-4.750500321E-1,-5.524050236E0,-1.189500093E-1
2.669782037E1,-4.750500321E-1,-5.524050236E0,-1.189500093E-1
2.671782037E1,1.055999994E0,-7.419000149E0,1.182000041E0
2.673782037E1,1.055999994E0,-7.419000149E0,1.182000041E0
2.675782037E1,1.055999994E0,-7.419000149E0,1.182000041E0
2.677782037E1,1.055999994E0,-7.419000149E0,1.182000041E0
2.679782037E1,1.055999994E0,-7.419000149E0,1.182000041E0
2.681782037E1,7.489950180E0,-9.334050179E0,-2.934000254E0
2.683782037E1,7.489950180E0,-9.334050179E0,-2.934000254E0
2.685782037E1,4.636950016E0,-7.591950417E0,-3.565950155E0
2.687782037E1,4.636950016E0,-7.591950417E0,-3.565950155E0
2.689782037E1,4.636950016E0,-7.591950417E0,-3.565950155E0
2.691782037E1,2.779950142E0,-7.324050426E0,-8.269500136E-1
2.693782037E1,2.779950142E0,-7.324050426E0,-8.269500136E-1
2.695782037E1,2.703000069E0,-6.040950298E0,9.529500604E-1
2.697782037E1,2.703000069E0,-6.040950298E0,9.529500604E-1
2.699782037E1,2.703000069E0,-6.040950298E0,9.529500604E-1
2.701782037E1,2.703000069E0,-6.040950298E0,9.529500604E-1
2.703782037E1,2.703000069E0,-6.040950298E0,9.529500604E-1
2.705782037E1,6.475050449E0,-1.567305088E1,4.476000309E0
2.707782037E1,6.475050449E0,-1.567305088E1,4.476000309E0
2.709782037E1,6.475050449E0,-1.567305088E1,4.476000309E0
2.711782037E1,6.475050449E0,-1.567305088E1,4.476000309E0
2.713782037E1,6.475050449E0,-1.567305088E1,4.476000309E0
2.715782037E1,2.856000185E0,-1.632405090E1,1.795050144E0
2.717782037E1,2.856000185E0,-1.632405090E1,1.795050144E0
2.719782037E1,2.856000185E0,-1.632405090E1,1.795050144E0
2.721782037E1,2.856000185E0,-1.632405090E1,1.795050144E0
2.723782037E1,2.856000185E0,-1.632405090E1,1.795050144E0
2.725782037E1,2.856000185E0,-1.632405090E1,1.795050144E0
2.727782037E1,2.856000185E0,-1.632405090E1,1.795050144E0
2.729782037E1,2.281949997E0,-6.117000103E0,1.813950062E0
2.731782037E1,2.281949997E0,-6.117000103E0,1.813950062E0
2.733782037E1,2.281949997E0,-6.117000103E0,1.813950062E0
2.735782037E1,2.281949997E0,-6.117000103E0,1.813950062E0
2.737782037E1,2.281949997E0,-6.117000103E0,1.813950062E0
2.739782037E1,7.126050472E0,-5.179050446E0,-2.140500098E-1
2.741782037E1,7.126050472E0,-5.179050446E0,-2.140500098E-1
2.743782037E1,3.142950058E0,-6.768000126E0,1.660950065E0
2.745782037E1,3.142950058E0,-6.768000126E0,1.660950065E0
2.747782037E1,3.142950058E0,-6.768000126E0,1.660950065E0
2.749782037E1,7.069050312E0,-7.228050232E0,8.190000653E-1
2.751782037E1,7.069050312E0,-7.228050232E0,8.190000653E-1
2.753782037E1,1.007505035E1,-1.107705021E1,2.331000090E0
2.755782037E1,1.007505035E1,-1.107705021E1,2.331000090E0
2.757782037E1,1.007505035E1,-1.107705021E1,2.331000090E0
2.759782037E1,1.007505035E1,-1.107705021E1,2.331000090E0
2.761782037E1,1.007505035E1,-1.107705021E1,2.331000090E0
2.763782037E1,2.491950035E0,-1.923405075E1,-3.622950077E0
2.765782037E1,2.491950035E0,-1.923405075E1,-3.622950077E0
2.767782037E1,2.491950035E0,-1.923405075E1,-3.622950077E0
2.769782037E1,2.491950035E0,-1.923405075E1,-3.622950077E0
2.771782037E1,2.491950035E0,-1.923405075E1,-3.622950077E0
2.773782037E1,4.522050381E0,-7.534050465E0,-8.659500480E-1
2.775782037E1,4.522050381E0,-7.534050465E0,-8.659500480E-1
2.777782037E1,-3.790500164E-1,-8.146950722E0,-5.590500236E-1
2.779782037E1,-3.790500164E-1,-8.146950722E0,-5.590500236E-1
2.781782037E1,-3.790500164E-1,-8.146950722E0,-5.590500236E-1
2.783782037E1,-3.790500164E-1,-8.146950722E0,-5.590500236E-1
2.785782037E1,-3.790500164E-1,-8.146950722E0,-5.590500236E-1
2.787782037E1,-4.170000255E-1,-3.819000244E0,-6.105000153E-2
2.789782037E1,-4.170000255E-1,-3.819000244E0,-6.105000153E-2
2.791782037E1,-4.170000255E-1,-3.819000244E0,-6.105000153E-2
2.793782037E1,-4.170000255E-1,-3.819000244E0,-6.105000153E-2
2.795782037E1,-4.170000255E-1,-3.819000244E0,-6.105000153E-2
2.797782037E1,5.748000145E0,-8.722050667E0,-4.200000316E-2
2.799782037E1,5.748000145E0,-8.722050667E0,-4.200000316E-2
2.801782037E1,7.030950546E0,-7.611000538E0,-1.669950128E0
2.803782037E1,7.030950546E0,-7.611000538E0,-1.669950128E0
2.805782037E1,7.030950546E0,-7.611000538E0,-1.669950128E0
2.807782037E1,7.030950546E0,-7.611000538E0,-1.669950128E0
2.809782037E1,7.030950546E0,-7.611000538E0,-1.669950128E0
2.811782037E1,2.128050089E0,-9.411000252E0,-1.477950096E0
2.813782037E1,2.128050089E0,-9.411000252E0,-1.477950096E0
2.815782037E1,2.128050089E0,-9.411000252E0,-1.477950096E0
2.817782037E1,2.128050089E0,-9.411000252E0,-1.477950096E0
2.819782037E1,2.128050089E0,-9.411000252E0,-1.477950096E0
2.821782037E1,5.499000072E0,-1.065600014E1,5.509500504E-1
2.823782037E1,5.499000072E0,-1.065600014E1,5.509500504E-1
2.825782037E1,6.265050411E0,-1.236000061E1,2.734050035E0
2.827782037E1,6.265050411E0,-1.236000061E1,2.734050035E0
2.829782037E1,6.265050411E0,-1.236000061E1,2.734050035E0
2.831782037E1,5.614050388E0,-1.385400105E1,1.660950065E0
2.833782037E1,5.614050388E0,-1.385400105E1,1.660950065E0
2.835782037E1,4.081950188E0,-1.844895172E1,8.760000467E-1
2.837782037E1,4.081950188E0,-1.844895172E1,8.760000467E-1
2.839782037E1,2.329500169E-1,-1.063605022E1,2.676000118E0
2.841782037E1,2.329500169E-1,-1.063605022E1,2.676000118E0
2.843782037E1,2.329500169E-1,-1.063605022E1,2.676000118E0
2.845782037E1,-7.810500264E-1,-6.730050087E0,3.210000098E-1
2.847782037E1,-7.810500264E-1,-6.730050087E0,3.210000098E-1
2.849782037E1,-7.810500264E-1,-6.730050087E0,3.210000098E-1
2.851782037E1,-7.810500264E-1,-6.730050087E0,3.210000098E-1
2.853782037E1,-7.810500264E-1,-6.730050087E0,3.210000098E-1
2.855782037E1,6.571050167E0,-6.481050491E0,-1.842000127E0
2.857782037E1,6.571050167E0,-6.481050491E0,-1.842000127E0
2.859782037E1,6.571050167E0,-6.481050491E0,-1.842000127E0
2.861782037E1,6.571050167E0,-6.481050491E0,-1.842000127E0
2.863782037E1,6.571050167E0,-6.481050491E0,-1.842000127E0
2.865782037E1,6.571050167E0,-6.481050491E0,-1.842000127E0
2.867782037E1,6.571050167E0,-6.481050491E0,-1.842000127E0
2.869782037E1,5.001000404E0,-7.630050182E0,2.485050201E0
2.871782037E1,5.001000404E0,-7.630050182E0,2.485050201E0
2.873782037E1,5.001000404E0,-7.630050182E0,2.485050201E0
2.875782037E1,5.001000404E0,-7.630050182E0,2.485050201E0
2.877782037E1,5.001000404E0,-7.630050182E0,2.485050201E0
2.879782037E1,7.663050175E0,-1.366200066E1,8.950500488E-1
2.881782037E1,7.663050175E0,-1.366200066E1,8.950500488E-1
2.883782037E1,5.901000500E0,-1.875600052E1,2.178000212E0
2.885782037E1,5.901000500E0,-1.875600052E1,2.178000212E0
2.887782037E1,5.901000500E0,-1.875600052E1,2.178000212E0
2.889782037E1,5.901000500E0,-1.875600052E1,2.178000212E0
2.891782037E1,5.901000500E0,-1.875600052E1,2.178000212E0
2.893782037E1,8.839500546E-1,-5.140950203E0,-6.169500351E-1
2.895782037E1,8.839500546E-1,-5.140950203E0,-6.169500351E-1
2.897782037E1,8.839500546E-1,-5.140950203E0,-6.169500351E-1
2.899782037E1,8.839500546E-1,-5.140950203E0,-6.169500351E-1
2.901782037E1,8.839500546E-1,-5.140950203E0,-6.169500351E-1
2.903782037E1,-5.130000114E-1,-6.022050381E0,-1.038000107E0
2.905782037E1,-5.130000114E-1,-6.022050381E0,-1.038000107E0
2.907782037E1,-5.130000114E-1,-6.022050381E0,-1.038000107E0
2.909782037E1,-5.130000114E-1,-6.022050381E0,-1.038000107E0
2.911782037E1,-5.130000114E-1,-6.022050381E0,-1.038000107E0
2.913782037E1,1.687950134E0,-4.240950108E0,1.870500147E-1
2.915782037E1,1.687950134E0,-4.240950108E0,1.870500147E-1
2.917782037E1,4.081950188E0,-8.836050034E0,2.629500031E-1
2.919782037E1,4.081950188E0,-8.836050034E0,2.629500031E-1
2.921782037E1,6.303000450E0,-7.552950382E0,-1.822950125E0
2.923782037E1,6.303000450E0,-7.552950382E0,-1.822950125E0
2.925782037E1,6.303000450E0,-7.552950382E0,-1.822950125E0
2.927782037E1,4.828050137E0,-1.063605022E1,1.395000052E-2
2.929782037E1,4.828050137E0,-1.063605022E1,1.395000052E-2
2.931782037E1,4.828050137E0,-1.063605022E1,1.395000052E-2
2.933782037E1,4.828050137E0,-1.063605022E1,1.395000052E-2
2.935782037E1,4.828050137E0,-1.063605022E1,1.395000052E-2
2.937782037E1,6.954000473E0,-9.373050690E0,2.829000235E0
2.939782037E1,6.954000473E0,-9.373050690E0,2.829000235E0
2.941782037E1,6.954000473E0,-9.373050690E0,2.829000235E0
2.943782037E1,6.954000473E0,-9.373050690E0,2.829000235E0
2.945782037E1,6.954000473E0,-9.373050690E0,2.829000235E0
2.947782037E1,6.954000473E0,-9.373050690E0,2.829000235E0
2.949782037E1,6.954000473E0,-9.373050690E0,2.829000235E0
2.951782037E1,2.338950157E0,-1.337505054E1,1.354950070E0
2.953782037E1,2.338950157E0,-1.337505054E1,1.354950070E0
2.955782037E1,2.338950157E0,-1.337505054E1,1.354950070E0
2.957782037E1,2.338950157E0,-1.337505054E1,1.354950070E0
2.959782037E1,2.338950157E0,-1.337505054E1,1.354950070E0
2.961782037E1,-1.413000107E0,-6.922050476E0,9.910500646E-1
2.963782037E1,-1.413000107E0,-6.922050476E0,9.910500646E-1
2.965782037E1,2.683950186E0,-6.270000458E0,-3.336000204E0
2.965782037E1,2.683950186E0,-6.270000458E0,-3.336000204E0
2.969782037E1,2.683950186E0,-6.270000458E0,-3.336000204E0
2.971782037E1,2.683950186E0,-6.270000458E0,-3.336000204E0
2.973782037E1,2.683950186E0,-6.270000458E0,-3.336000204E0
2.975782037E1,9.193950653E0,-7.381050587E0,2.005950212E0
2.977782037E1,9.193950653E0,-7.381050587E0,2.005950212E0
2.979782037E1,9.193950653E0,-7.381050587E0,2.005950212E0
2.981782037E1,9.193950653E0,-7.381050587E0,2.005950212E0
2.983782037E1,9.193950653E0,-7.381050587E0,2.005950212E0
2.985782037E1,7.279950142E0,-1.714695168E1,9.139500260E-1
2.987782037E1,7.279950142E0,-1.714695168E1,9.139500260E-1
2.989782037E1,2.242950201E0,-2.122605133E1,-2.722950220E0
2.991782037E1,2.242950201E0,-2.122605133E1,-2.722950220E0
2.993782037E1,2.242950201E0,-2.122605133E1,-2.722950220E0
2.995782037E1,2.242950201E0,-2.122605133E1,-2.722950220E0
2.997782037E1,2.242950201E0,-2.122605133E1,-2.722950220E0
2.999782037E1,5.389500260E-1,-4.699950218E0,-4.351050377E0
3.001782037E1,5.389500260E-1,-4.699950218E0,-4.351050377E0
3.003782037E1,5.389500260E-1,-4.699950218E0,-4.351050377E0
3.005782037E1,5.389500260E-1,-4.699950218E0,-4.351050377E0
3.007782037E1,5.389500260E-1,-4.699950218E0,-4.351050377E0
3.009782037E1,2.140500098E-1,-9.124050140E0,9.340500236E-1
3.011782037E1,2.140500098E-1,-9.124050140E0,9.340500236E-1
3.013782037E1,2.140500098E-1,-9.124050140E0,9.340500236E-1
3.015782037E1,2.140500098E-1,-9.124050140E0,9.340500236E-1
3.017782037E1,2.140500098E-1,-9.124050140E0,9.340500236E-1
3.019782037E1,3.699000120E0,-9.448950768E0,-7.995000482E-2
3.021782037E1,3.699000120E0,-9.448950768E0,-7.995000482E-2
3.023782037E1,3.699000120E0,-9.448950768E0,-7.995000482E-2
3.025782037E1,3.699000120E0,-9.448950768E0,-7.995000482E-2
3.027782037E1,3.699000120E0,-9.448950768E0,-7.995000482E-2
3.029782037E1,3.699000120E0,-9.448950768E0,-7.995000482E-2
3.031782037E1,3.699000120E0,-9.448950768E0,-7.995000482E-2
3.033782037E1,3.928050280E0,-9.448950768E0,2.350950003E0
3.035782037E1,3.928050280E0,-9.448950768E0,2.350950003E0
3.037782037E1,6.838950157E0,-8.242950439E0,4.762950420E0
3.039782037E1,6.838950157E0,-8.242950439E0,4.762950420E0
3.041782037E1,6.838950157E0,-8.242950439E0,4.762950420E0
3.043782037E1,7.146000385E0,-1.281900024E1,-6.322950363E0
3.045782037E1,7.146000385E0,-1.281900024E1,-6.322950363E0
3.047782037E1,7.146000385E0,-1.281900024E1,-6.322950363E0
3.049782037E1,7.146000385E0,-1.281900024E1,-6.322950363E0
3.051782037E1,7.146000385E0,-1.281900024E1,-6.322950363E0
3.053782037E1,7.146000385E0,-1.281900024E1,-6.322950363E0
3.055782037E1,7.146000385E0,-1.281900024E1,-6.322950363E0
3.057782037E1,7.146000385E0,-1.281900024E1,-6.322950363E0
3.059782037E1,7.146000385E0,-1.281900024E1,-6.322950363E0
3.061782037E1,8.650500178E-1,-9.507000923E0,-2.034000158E0
3.063782037E1,8.650500178E-1,-9.507000923E0,-2.034000158E0
3.065782037E1,8.650500178E-1,-9.507000923E0,-2.034000158E0
3.067782037E1,7.500000596E-1,-1.008105087E1,9.720000625E-1
3.069782037E1,7.500000596E-1,-1.008105087E1,9.720000625E-1
3.071782037E1,4.620000124E-1,-9.679050446E0,2.868000031E0
3.073782037E1,4.620000124E-1,-9.679050446E0,2.868000031E0
3.075782037E1,4.620000124E-1,-9.679050446E0,2.868000031E0
3.077782037E1,4.620000124E-1,-9.679050446E0,2.868000031E0
3.079782037E1,4.620000124E-1,-9.679050446E0,2.868000031E0
3.081782037E1,9.799500704E-1,-1.046400070E1,3.117000103E0
3.083782037E1,9.799500704E-1,-1.046400070E1,3.117000103E0
3.085782037E1,9.799500704E-1,-1.046400070E1,3.117000103E0
3.087782037E1,9.799500704E-1,-1.046400070E1,3.117000103E0
3.089782037E1,9.799500704E-1,-1.046400070E1,3.117000103E0
3.091782037E1,5.389500260E-1,-9.928050041E0,2.752950191E0
3.093782037E1,5.389500260E-1,-9.928050041E0,2.752950191E0
3.095782037E1,5.389500260E-1,-9.928050041E0,2.752950191E0
3.097782037E1,5.389500260E-1,-9.928050041E0,2.752950191E0
3.099782037E1,5.389500260E-1,-9.928050041E0,2.752950191E0
3.101782037E1,3.316050053E0,-8.779050827E0,4.591050148E0
3.103782037E1,3.316050053E0,-8.779050827E0,4.591050148E0
3.105782037E1,5.173050404E0,-8.970000267E0,3.978000164E0
3.107782037E1,5.173050404E0,-8.970000267E0,3.978000164E0
3.109782037E1,5.173050404E0,-8.970000267E0,3.978000164E0
3.111782037E1,5.173050404E0,-8.970000267E0,3.978000164E0
3.113782037E1,5.173050404E0,-8.970000267E0,3.978000164E0
3.115782037E1,4.101000309E0,-9.105000496E0,-2.397000074E0
3.117782037E1,4.101000309E0,-9.105000496E0,-2.397000074E0
3.119782037E1,4.101000309E0,-9.105000496E0,-2.397000074E0
3.121782037E1,4.101000309E0,-9.105000496E0,-2.397000074E0
3.123782037E1,4.101000309E0,-9.105000496E0,-2.397000074E0
3.125782037E1,5.211000443E0,-9.142950058E0,3.787050247E0
3.127782037E1,5.211000443E0,-9.142950058E0,3.787050247E0
3.129782037E1,3.756000280E0,-8.568000793E0,-3.480000198E-1
3.131782037E1,3.756000280E0,-8.568000793E0,-3.480000198E-1
3.133782037E1,3.756000280E0,-8.568000793E0,-3.480000198E-1
3.135782037E1,3.756000280E0,-8.568000793E0,-3.480000198E-1
3.137782037E1,3.756000280E0,-8.568000793E0,-3.480000198E-1
3.139782037E1,1.669050097E0,-9.736050606E0,2.925000191E0
3.141782037E1,1.669050097E0,-9.736050606E0,2.925000191E0
3.143782037E1,2.262000084E0,-9.601950645E0,-3.870000243E-1
3.145782037E1,2.262000084E0,-9.601950645E0,-3.870000243E-1
3.147782037E1,2.262000084E0,-9.601950645E0,-3.870000243E-1
3.149782037E1,3.507000208E0,-1.006200027E1,-2.359050035E0
3.151782037E1,3.507000208E0,-1.006200027E1,-2.359050035E0
3.153782037E1,2.416050196E0,-1.124895096E1,-4.830000103E-1
3.155782037E1,2.416050196E0,-1.124895096E1,-4.830000103E-1
3.157782037E1,2.416050196E0,-1.124895096E1,-4.830000103E-1
3.159782037E1,2.416050196E0,-1.124895096E1,-4.830000103E-1
3.161782037E1,2.416050196E0,-1.124895096E1,-4.830000103E-1
3.163782037E1,2.875050068E0,-9.622050285E0,7.039500475E-1
3.165782037E1,2.875050068E0,-9.622050285E0,7.039500475E-1
3.167782037E1,2.875050068E0,-9.622050285E0,7.039500475E-1
3.169782037E1,2.875050068E0,-9.622050285E0,7.039500475E-1
3.171782037E1,2.875050068E0,-9.622050285E0,7.039500475E-1
3.173782037E1,1.057305050E1,-9.181050301E0,1.290000081E-1
3.175782037E1,1.057305050E1,-9.181050301E0,1.290000081E-1
3.177782037E1,6.436950207E0,-9.813000679E0,-7.995000482E-2
3.179782037E1,6.436950207E0,-9.813000679E0,-7.995000482E-2
3.181782037E1,6.436950207E0,-9.813000679E0,-7.995000482E-2
3.183782037E1,4.483950138E0,-8.607000351E0,3.589500189E-1
3.185782037E1,4.483950138E0,-8.607000351E0,3.589500189E-1
3.187782037E1,4.714050293E0,-6.499950409E0,2.440500110E-1
3.189782037E1,4.714050293E0,-6.499950409E0,2.440500110E-1
3.191782037E1,4.714050293E0,-6.499950409E0,2.440500110E-1
3.193782037E1,4.714050293E0,-6.499950409E0,2.440500110E-1
3.195782037E1,4.714050293E0,-6.499950409E0,2.440500110E-1
3.197782037E1,5.422050476E0,-4.948950291E0,-6.930000186E-1
3.199782037E1,5.422050476E0,-4.948950291E0,-6.930000186E-1
3.201782037E1,5.422050476E0,-4.948950291E0,-6.930000186E-1
3.203782037E1,5.422050476E0,-4.948950291E0,-6.930000186E-1
3.205782037E1,5.422050476E0,-4.948950291E0,-6.930000186E-1
3.207782037E1,6.246000290E0,-4.585050106E0,-9.420000315E-1
3.209782037E1,6.246000290E0,-4.585050106E0,-9.420000315E-1
3.211782037E1,5.977050304E0,-3.877050161E0,-1.306050062E0
3.213782037E1,5.977050304E0,-3.877050161E0,-1.306050062E0
3.215782037E1,5.977050304E0,-3.877050161E0,-1.306050062E0
3.217782037E1,5.977050304E0,-3.877050161E0,-1.306050062E0
3.219782037E1,5.977050304E0,-3.877050161E0,-1.306050062E0
3.221782037E1,1.371405029E1,-8.664000511E0,5.310000181E-1
3.223782037E1,1.371405029E1,-8.664000511E0,5.310000181E-1
3.225782037E1,5.997000217E0,-5.599950314E0,-3.775950193E0
3.227782037E1,5.997000217E0,-5.599950314E0,-3.775950193E0
3.229782037E1,5.997000217E0,-5.599950314E0,-3.775950193E0
3.231782037E1,6.054000378E0,-8.224050522E0,-7.699500322E-1
3.233782037E1,6.054000378E0,-8.224050522E0,-7.699500322E-1
3.235782037E1,6.054000378E0,-8.224050522E0,-7.699500322E-1
3.237782037E1,6.054000378E0,-8.224050522E0,-7.699500322E-1
3.239782037E1,6.054000378E0,-8.224050522E0,-7.699500322E-1
3.241782037E1,6.054000378E0,-8.224050522E0,-7.699500322E-1
3.243782037E1,6.054000378E0,-8.224050522E0,-7.699500322E-1
3.245782037E1,4.599000454E0,-9.430050850E0,1.336050034E0
3.247782037E1,4.599000454E0,-9.430050850E0,1.336050034E0
3.249782037E1,4.197000027E0,-9.697950363E0,1.623000026E0
3.251782037E1,4.197000027E0,-9.697950363E0,1.623000026E0
3.253782037E1,4.197000027E0,-9.697950363E0,1.623000026E0
3.255782037E1,3.009000063E0,-1.044495010E1,1.776000142E0
3.257782037E1,3.009000063E0,-1.044495010E1,1.776000142E0
3.259782037E1,3.009000063E0,-1.044495010E1,1.776000142E0
3.261782037E1,3.009000063E0,-1.044495010E1,1.776000142E0
3.263782037E1,3.009000063E0,-1.044495010E1,1.776000142E0
3.265782037E1,3.009000063E0,-1.044495010E1,1.776000142E0
3.267782037E1,3.009000063E0,-1.044495010E1,1.776000142E0
3.269782037E1,3.985950232E0,-7.917000294E0,6.270000339E-1
3.271782037E1,3.985950232E0,-7.917000294E0,6.270000339E-1
3.273782037E1,3.985950232E0,-7.917000294E0,6.270000339E-1
3.275782037E1,3.985950232E0,-7.917000294E0,6.270000339E-1
3.277782037E1,3.985950232E0,-7.917000294E0,6.270000339E-1
3.279782037E1,4.101000309E0,-9.315000534E0,1.029000044E0
3.281782037E1,4.101000309E0,-9.315000534E0,1.029000044E0
3.283782037E1,3.220050097E0,-9.487950325E0,1.315950036E0
3.285782037E1,3.220050097E0,-9.487950325E0,1.315950036E0
3.287782037E1,3.220050097E0,-9.487950325E0,1.315950036E0
3.289782037E1,1.477050066E0,-9.105000496E0,8.950500488E-1
3.291782037E1,1.477050066E0,-9.105000496E0,8.950500488E-1
3.293782037E1,-1.300500035E-1,-9.870000839E0,7.420500517E-1
3.295782037E1,-1.300500035E-1,-9.870000839E0,7.420500517E-1
3.297782037E1,-1.300500035E-1,-9.870000839E0,7.420500517E-1
3.299782037E1,-1.300500035E-1,-9.870000839E0,7.420500517E-1
3.301782037E1,-1.300500035E-1,-9.870000839E0,7.420500517E-1
3.303782037E1,4.063050270E0,-1.040700054E1,8.190000653E-1
3.305782037E1,4.063050270E0,-1.040700054E1,8.190000653E-1
3.307782037E1,4.063050270E0,-1.040700054E1,8.190000653E-1
3.309782037E1,4.063050270E0,-1.040700054E1,8.190000653E-1
3.311782037E1,4.063050270E0,-1.040700054E1,8.190000653E-1
3.313782037E1,2.338950157E0,-1.507905102E1,3.210000098E-1
3.315782037E1,2.338950157E0,-1.507905102E1,3.210000098E-1
3.317782037E1,2.491950035E0,-1.687905121E1,6.649500132E-1
3.319782037E1,2.491950035E0,-1.687905121E1,6.649500132E-1
3.321782037E1,2.491950035E0,-1.687905121E1,6.649500132E-1
3.323782037E1,2.491950035E0,-1.687905121E1,6.649500132E-1
3.325782037E1,2.491950035E0,-1.687905121E1,6.649500132E-1
3.327782037E1,3.009000063E0,-7.993950367E0,1.450950027E0
3.329782037E1,3.009000063E0,-7.993950367E0,1.450950027E0
3.331782037E1,3.009000063E0,-7.993950367E0,1.450950027E0
3.333782037E1,3.009000063E0,-7.993950367E0,1.450950027E0
3.335782037E1,3.009000063E0,-7.993950367E0,1.450950027E0
3.337782037E1,6.073050499E0,-1.019595051E1,-3.277950048E0
3.339782037E1,6.073050499E0,-1.019595051E1,-3.277950048E0
3.341782037E1,4.714050293E0,-9.832050323E0,1.144050002E0
3.343782037E1,4.714050293E0,-9.832050323E0,1.144050002E0
3.345782037E1,4.714050293E0,-9.832050323E0,1.144050002E0
3.347782037E1,4.714050293E0,-9.832050323E0,1.144050002E0
3.349782037E1,4.714050293E0,-9.832050323E0,1.144050002E0
3.351782037E1,3.105000257E0,-7.075050354E0,2.250000089E-1
3.353782037E1,3.105000257E0,-7.075050354E0,2.250000089E-1
3.355782037E1,3.105000257E0,-7.075050354E0,2.250000089E-1
3.357782037E1,3.105000257E0,-7.075050354E0,2.250000089E-1
3.359782037E1,3.105000257E0,-7.075050354E0,2.250000089E-1
3.361782037E1,4.330950260E0,-7.879050255E0,1.290000081E-1
3.363782037E1,4.330950260E0,-7.879050255E0,1.290000081E-1
3.365782037E1,4.330950260E0,-7.879050255E0,1.290000081E-1
3.367782037E1,4.330950260E0,-7.879050255E0,1.290000081E-1
3.369782037E1,4.330950260E0,-7.879050255E0,1.290000081E-1
3.371782037E1,2.914050102E0,-5.695950508E0,-1.189500093E-1
3.373782037E1,2.914050102E0,-5.695950508E0,-1.189500093E-1
3.375782037E1,3.889950275E0,-3.532050133E0,-2.295000106E-2
3.377782037E1,3.889950275E0,-3.532050133E0,-2.295000106E-2
3.379782037E1,3.889950275E0,-3.532050133E0,-2.295000106E-2
3.381782037E1,3.889950275E0,-3.532050133E0,-2.295000106E-2
3.383782037E1,3.889950275E0,-3.532050133E0,-2.295000106E-2
3.385782037E1,6.493950367E0,-5.389950275E0,2.440500110E-1
3.387782037E1,6.493950367E0,-5.389950275E0,2.440500110E-1
3.389782037E1,7.738950253E0,-8.414999962E0,2.158950090E0
3.391782037E1,7.738950253E0,-8.414999962E0,2.158950090E0
3.393782037E1,7.738950253E0,-8.414999962E0,2.158950090E0
3.395782037E1,8.542950630E0,-1.276200104E1,-1.726950049E0
3.397782037E1,8.542950630E0,-1.276200104E1,-1.726950049E0
3.399782037E1,8.542950630E0,-1.276200104E1,-1.726950049E0
3.401782037E1,8.542950630E0,-1.276200104E1,-1.726950049E0
3.403782037E1,8.542950630E0,-1.276200104E1,-1.726950049E0
3.405782037E1,8.542950630E0,-1.276200104E1,-1.726950049E0
3.407782037E1,8.542950630E0,-1.276200104E1,-1.726950049E0
3.409782037E1,3.391950130E0,-8.434050560E0,2.464950085E0
3.411782037E1,3.391950130E0,-8.434050560E0,2.464950085E0
3.413782037E1,3.391950130E0,-8.434050560E0,2.464950085E0
3.415782037E1,3.391950130E0,-8.434050560E0,2.464950085E0
3.417782037E1,3.391950130E0,-8.434050560E0,2.464950085E0
3.419782037E1,2.779950142E0,-8.875050545E0,7.420500517E-1
3.421782037E1,2.779950142E0,-8.875050545E0,7.420500517E-1
3.423782037E1,2.301000118E0,-6.922050476E0,-7.510500550E-1
3.425782037E1,2.301000118E0,-6.922050476E0,-7.510500550E-1
3.427782037E1,2.301000118E0,-6.922050476E0,-7.510500550E-1
3.429782037E1,2.301000118E0,-6.922050476E0,-7.510500550E-1
3.431782037E1,2.301000118E0,-6.922050476E0,-7.510500550E-1
3.433782037E1,4.005000114E0,-8.299950600E0,9.720000625E-1
3.435782037E1,4.005000114E0,-8.299950600E0,9.720000625E-1
3.437782037E1,4.005000114E0,-8.299950600E0,9.720000625E-1
3.439782037E1,4.005000114E0,-8.299950600E0,9.720000625E-1
3.441782037E1,4.005000114E0,-8.299950600E0,9.720000625E-1
3.443782037E1,4.693950176E0,-9.085050583E0,8.380500674E-1
3.445782037E1,4.693950176E0,-9.085050583E0,8.380500674E-1
3.447782037E1,3.162000179E0,-9.487950325E0,1.603950024E0
3.449782037E1,3.162000179E0,-9.487950325E0,1.603950024E0
3.451782037E1,3.162000179E0,-9.487950325E0,1.603950024E0
3.453782037E1,3.162000179E0,-9.487950325E0,1.603950024E0
3.455782037E1,3.162000179E0,-9.487950325E0,1.603950024E0
3.457782037E1,3.162000179E0,-9.487950325E0,1.603950024E0
3.459782037E1,3.162000179E0,-9.487950325E0,1.603950024E0
3.461782037E1,8.650500178E-1,-9.583050728E0,1.480500102E-1
3.463782037E1,8.650500178E-1,-9.583050728E0,1.480500102E-1
3.465782037E1,8.650500178E-1,-9.583050728E0,1.480500102E-1
3.467782037E1,3.297000170E0,-1.011900043E1,1.258950114E0
3.469782037E1,3.297000170E0,-1.011900043E1,1.258950114E0
3.471782037E1,3.297000170E0,-1.011900043E1,1.258950114E0
3.473782037E1,3.297000170E0,-1.011900043E1,1.258950114E0
3.475782037E1,3.297000170E0,-1.011900043E1,1.258950114E0
3.477782037E1,3.142950058E0,-1.350900078E1,2.121000051E0
3.479782037E1,3.142950058E0,-1.350900078E1,2.121000051E0
3.481782037E1,3.430950165E0,-1.691700172E1,-6.550500393E-1
3.483782037E1,3.430950165E0,-1.691700172E1,-6.550500393E-1
3.485782037E1,3.430950165E0,-1.691700172E1,-6.550500393E-1
3.487782037E1,3.430950165E0,-1.691700172E1,-6.550500393E-1
3.489782037E1,3.430950165E0,-1.691700172E1,-6.550500393E-1
3.491782037E1,9.220500588E-1,-8.358000755E0,3.589500189E-1
3.493782037E1,9.220500588E-1,-8.358000755E0,3.589500189E-1
3.495782037E1,3.852000237E0,-9.315000534E0,-3.870000243E-1
3.497782037E1,3.852000237E0,-9.315000534E0,-3.870000243E-1
3.499782037E1,3.852000237E0,-9.315000534E0,-3.870000243E-1
3.501782037E1,4.752000332E0,-1.034895039E1,2.140050173E0
3.503782037E1,4.752000332E0,-1.034895039E1,2.140050173E0
3.505782037E1,4.752000332E0,-1.034895039E1,2.140050173E0
3.507782037E1,4.752000332E0,-1.034895039E1,2.140050173E0
3.509782037E1,4.752000332E0,-1.034895039E1,2.140050173E0
3.511782037E1,4.752000332E0,-1.034895039E1,2.140050173E0
3.513782037E1,4.752000332E0,-1.034895039E1,2.140050173E0
3.515782037E1,1.840950131E0,-7.285050392E0,-1.380000114E-1
3.515782037E1,1.840950131E0,-7.285050392E0,-1.380000114E-1
3.519782037E1,1.840950131E0,-7.285050392E0,-1.380000114E-1
3.521782037E1,1.840950131E0,-7.285050392E0,-1.380000114E-1
3.523782037E1,1.840950131E0,-7.285050392E0,-1.380000114E-1
3.525782037E1,4.273050308E0,-7.381050587E0,-5.779500008E-1
3.527782037E1,4.273050308E0,-7.381050587E0,-5.779500008E-1
3.529782037E1,5.767050266E0,-7.975050449E0,-3.870000243E-1
3.531782037E1,5.767050266E0,-7.975050449E0,-3.870000243E-1
3.533782037E1,5.767050266E0,-7.975050449E0,-3.870000243E-1
3.535782037E1,5.767050266E0,-7.975050449E0,-3.870000243E-1
3.537782037E1,5.767050266E0,-7.975050449E0,-3.870000243E-1
3.539782037E1,5.767050266E0,-7.975050449E0,-3.870000243E-1
3.541782037E1,5.767050266E0,-7.975050449E0,-3.870000243E-1
3.543782037E1,5.767050266E0,-7.975050449E0,-3.870000243E-1
3.545782037E1,5.767050266E0,-7.975050449E0,-3.870000243E-1
3.547782037E1,5.767050266E0,-7.975050449E0,-3.870000243E-1
3.549782037E1,7.146000385E0,-4.260000229E0,-5.590500236E-1
3.551782037E1,7.146000385E0,-4.260000229E0,-5.590500236E-1
3.553782037E1,7.146000385E0,-4.260000229E0,-5.590500236E-1
3.555782037E1,7.146000385E0,-4.260000229E0,-5.590500236E-1
3.557782037E1,7.146000385E0,-4.260000229E0,-5.590500236E-1
3.559782037E1,6.436950207E0,-5.197950363E0,-6.360000372E-1
3.561782037E1,6.436950207E0,-5.197950363E0,-6.360000372E-1
3.563782037E1,8.697000504E0,-1.031100082E1,5.310000181E-1
3.565782037E1,8.697000504E0,-1.031100082E1,5.310000181E-1
3.567782037E1,1.132005024E1,-1.186200047E1,-2.167950153E0
3.569782037E1,1.132005024E1,-1.186200047E1,-2.167950153E0
3.571782037E1,1.132005024E1,-1.186200047E1,-2.167950153E0
3.573782037E1,3.948000193E0,-8.013000488E0,-5.970000029E-1
3.575782037E1,3.948000193E0,-8.013000488E0,-5.970000029E-1
3.577782037E1,3.948000193E0,-8.013000488E0,-5.970000029E-1
3.579782037E1,3.948000193E0,-8.013000488E0,-5.970000029E-1
3.581782037E1,3.948000193E0,-8.013000488E0,-5.970000029E-1
3.583782037E1,2.779950142E0,-9.028050423E0,1.450950027E0
3.585782037E1,2.779950142E0,-9.028050423E0,1.450950027E0
3.587782037E1,2.779950142E0,-9.028050423E0,1.450950027E0
3.589782037E1,2.779950142E0,-9.028050423E0,1.450950027E0
3.591782037E1,2.779950142E0,-9.028050423E0,1.450950027E0
3.593782037E1,2.779950142E0,-9.028050423E0,1.450950027E0
3.595782037E1,2.779950142E0,-9.028050423E0,1.450950027E0
3.597782037E1,3.162000179E0,-7.744950294E0,1.431000113E0
3.599782037E1,3.162000179E0,-7.744950294E0,1.431000113E0
3.601782037E1,4.081950188E0,-7.879050255E0,9.910500646E-1
3.603782037E1,4.081950188E0,-7.879050255E0,9.910500646E-1
3.605782037E1,4.081950188E0,-7.879050255E0,9.910500646E-1
3.607782037E1,4.197000027E0,-8.166000366E0,-8.460000157E-1
3.609782037E1,4.197000027E0,-8.166000366E0,-8.460000157E-1
3.611782037E1,4.197000027E0,-8.166000366E0,-8.460000157E-1
3.613782037E1,4.197000027E0,-8.166000366E0,-8.460000157E-1
3.615782037E1,4.197000027E0,-8.166000366E0,-8.460000157E-1
3.617782037E1,4.197000027E0,-8.166000366E0,-8.460000157E-1
3.619782037E1,4.197000027E0,-8.166000366E0,-8.460000157E-1
3.621782037E1,2.148000002E0,-9.411000252E0,8.760000467E-1
3.623782037E1,2.148000002E0,-9.411000252E0,8.760000467E-1
3.625782037E1,2.148000002E0,-9.411000252E0,8.760000467E-1
3.627782037E1,2.148000002E0,-9.411000252E0,8.760000467E-1
3.629782037E1,2.148000002E0,-9.411000252E0,8.760000467E-1
3.631782037E1,2.397000074E0,-1.027305031E1,5.509500504E-1
3.633782037E1,2.397000074E0,-1.027305031E1,5.509500504E-1
3.635782037E1,2.242950201E0,-1.015800095E1,7.990500331E-1
3.637782037E1,2.242950201E0,-1.015800095E1,7.990500331E-1
3.639782037E1,2.242950201E0,-1.015800095E1,7.990500331E-1
3.641782037E1,2.644950151E0,-1.082805061E1,2.944050074E0
3.643782037E1,2.644950151E0,-1.082805061E1,2.944050074E0
3.645782037E1,3.679950237E0,-1.410195065E1,1.585050106E0
3.647782037E1,3.679950237E0,-1.410195065E1,1.585050106E0
3.649782037E1,3.679950237E0,-1.410195065E1,1.585050106E0
3.651782037E1,3.679950237E0,-1.410195065E1,1.585050106E0
3.653782037E1,3.679950237E0,-1.410195065E1,1.585050106E0
3.655782037E1,-1.489500105E-1,-1.105800056E1,-1.057050109E0
3.657782037E1,-1.489500105E-1,-1.105800056E1,-1.057050109E0
3.659782037E1,-1.489500105E-1,-1.105800056E1,-1.057050109E0
3.661782037E1,-1.489500105E-1,-1.105800056E1,-1.057050109E0
3.663782037E1,-1.489500105E-1,-1.105800056E1,-1.057050109E0
3.665782037E1,5.536950111E0,-1.015800095E1,-5.209500194E-1
3.667782037E1,5.536950111E0,-1.015800095E1,-5.209500194E-1
3.669782037E1,4.350000381E0,-9.928050041E0,3.519000053E0
3.671782037E1,4.350000381E0,-9.928050041E0,3.519000053E0
3.673782037E1,3.334950209E0,-1.075095081E1,-4.446000099E0
3.675782037E1,3.334950209E0,-1.075095081E1,-4.446000099E0
3.677782037E1,3.334950209E0,-1.075095081E1,-4.446000099E0
3.679782037E1,1.822050095E0,-7.726050377E0,1.852950096E0
3.681782037E1,1.822050095E0,-7.726050377E0,1.852950096E0
3.683782037E1,1.822050095E0,-7.726050377E0,1.852950096E0
3.685782037E1,1.822050095E0,-7.726050377E0,1.852950096E0
3.687782037E1,1.822050095E0,-7.726050377E0,1.852950096E0
3.689782037E1,4.867050171E0,-7.093950272E0,-1.153050065E0
3.691782037E1,4.867050171E0,-7.093950272E0,-1.153050065E0
3.693782037E1,4.138950348E0,-6.960000515E0,-8.850000501E-1
3.695782037E1,4.138950348E0,-6.960000515E0,-8.850000501E-1
3.697782037E1,4.138950348E0,-6.960000515E0,-8.850000501E-1
3.699782037E1,4.138950348E0,-6.960000515E0,-8.850000501E-1
3.701782037E1,4.138950348E0,-6.960000515E0,-8.850000501E-1
3.703782037E1,3.679950237E0,-4.393949986E0,-8.850000501E-1
3.705782037E1,3.679950237E0,-4.393949986E0,-8.850000501E-1
3.707782037E1,4.848000050E0,-2.803950071E0,-8.080500364E-1
3.709782037E1,4.848000050E0,-2.803950071E0,-8.080500364E-1
3.711782037E1,4.848000050E0,-2.803950071E0,-8.080500364E-1
3.713782037E1,6.934950352E0,-4.048950195E0,-5.590500236E-1
3.715782037E1,6.934950352E0,-4.048950195E0,-5.590500236E-1
3.717782037E1,6.934950352E0,-4.048950195E0,-5.590500236E-1
3.719782037E1,6.934950352E0,-4.048950195E0,-5.590500236E-1
3.721782037E1,6.934950352E0,-4.048950195E0,-5.590500236E-1
3.723782037E1,8.811000824E0,-6.097950459E0,-1.822950125E0
3.725782037E1,8.811000824E0,-6.097950459E0,-1.822950125E0
3.727782037E1,9.463050842E0,-1.358505058E1,1.105949998E0
3.729782037E1,9.463050842E0,-1.358505058E1,1.105949998E0
3.731782037E1,9.463050842E0,-1.358505058E1,1.105949998E0
3.733782037E1,9.463050842E0,-1.358505058E1,1.105949998E0
3.735782037E1,9.463050842E0,-1.358505058E1,1.105949998E0
3.737782037E1,4.120050430E0,-9.162000656E0,7.990500331E-1
3.739782037E1,4.120050430E0,-9.162000656E0,7.990500331E-1
3.741782037E1,4.120050430E0,-9.162000656E0,7.990500331E-1
3.743782037E1,4.120050430E0,-9.162000656E0,7.990500331E-1
3.745782037E1,4.120050430E0,-9.162000656E0,7.990500331E-1
3.747782037E1,2.626050234E0,-1.099995041E1,2.236050129E0
3.749782037E1,2.626050234E0,-1.099995041E1,2.236050129E0
3.751782037E1,3.124050140E0,-9.430050850E0,7.800000310E-1
3.753782037E1,3.124050140E0,-9.430050850E0,7.800000310E-1
3.755782037E1,3.124050140E0,-9.430050850E0,7.800000310E-1
3.757782037E1,3.124050140E0,-9.430050850E0,7.800000310E-1
3.759782037E1,3.124050140E0,-9.430050850E0,7.800000310E-1
3.761782037E1,2.875050068E0,-7.438950539E0,1.374000072E0
3.763782037E1,2.875050068E0,-7.438950539E0,1.374000072E0
3.765782037E1,5.001000404E0,-8.664000511E0,1.968000054E0
3.767782037E1,5.001000404E0,-8.664000511E0,1.968000054E0
3.769782037E1,5.001000404E0,-8.664000511E0,1.968000054E0
3.771782037E1,5.365050316E0,-8.836050034E0,3.210000098E-1
3.773782037E1,5.365050316E0,-8.836050034E0,3.210000098E-1
3.775782037E1,3.469050169E0,-9.142950058E0,7.800000310E-1
3.777782037E1,3.469050169E0,-9.142950058E0,7.800000310E-1
3.779782037E1,3.469050169E0,-9.142950058E0,7.800000310E-1
3.781782037E1,3.469050169E0,-9.142950058E0,7.800000310E-1
3.783782037E1,3.469050169E0,-9.142950058E0,7.800000310E-1
3.785782037E1,4.429500103E-1,-9.448950768E0,7.420500517E-1
3.787782037E1,4.429500103E-1,-9.448950768E0,7.420500517E-1
3.789782037E1,4.429500103E-1,-9.448950768E0,7.420500517E-1
3.791782037E1,4.429500103E-1,-9.448950768E0,7.420500517E-1
3.793782037E1,4.429500103E-1,-9.448950768E0,7.420500517E-1
3.795782037E1,2.703000069E0,-1.147905064E1,5.119500160E-1
3.797782037E1,2.703000069E0,-1.147905064E1,5.119500160E-1
3.799782037E1,3.105000257E0,-1.519395065E1,1.290000081E-1
3.801782037E1,3.105000257E0,-1.519395065E1,1.290000081E-1
3.803782037E1,3.105000257E0,-1.519395065E1,1.290000081E-1
3.805782037E1,3.105000257E0,-1.519395065E1,1.290000081E-1
3.807782037E1,3.105000257E0,-1.519395065E1,1.290000081E-1
3.809782037E1,-9.340500236E-1,-1.159395027E1,-2.493000031E0
3.811782037E1,-9.340500236E-1,-1.159395027E1,-2.493000031E0
3.813782037E1,-9.340500236E-1,-1.159395027E1,-2.493000031E0
3.815782037E1,-9.340500236E-1,-1.159395027E1,-2.493000031E0
3.817782037E1,-9.340500236E-1,-1.159395027E1,-2.493000031E0
3.819782037E1,6.781950474E0,-1.052205086E1,5.931000233E0
3.821782037E1,6.781950474E0,-1.052205086E1,5.931000233E0
3.823782037E1,4.618050098E0,-8.950950623E0,5.890500546E-1
3.825782037E1,4.618050098E0,-8.950950623E0,5.890500546E-1
3.827782037E1,4.618050098E0,-8.950950623E0,5.890500546E-1
3.829782037E1,3.201000214E0,-9.065999985E0,-1.669950128E0
3.831782037E1,3.201000214E0,-9.065999985E0,-1.669950128E0
3.833782037E1,2.338950157E0,-8.587050438E0,2.293050051E0
3.835782037E1,2.338950157E0,-8.587050438E0,2.293050051E0
3.837782037E1,2.338950157E0,-8.587050438E0,2.293050051E0
3.839782037E1,2.338950157E0,-8.587050438E0,2.293050051E0
3.841782037E1,2.338950157E0,-8.587050438E0,2.293050051E0
3.843782037E1,2.569050074E0,-7.246950150E0,-1.380000114E-1
3.845782037E1,2.569050074E0,-7.246950150E0,-1.380000114E-1
3.847782037E1,4.407000065E0,-7.170000553E0,-2.295000106E-2
3.849782037E1,4.407000065E0,-7.170000553E0,-2.295000106E-2
3.851782037E1,4.407000065E0,-7.170000553E0,-2.295000106E-2
3.853782037E1,4.675050259E0,-6.232050419E0,5.295000225E-2
3.855782037E1,4.675050259E0,-6.232050419E0,5.295000225E-2
3.857782037E1,4.675050259E0,-6.232050419E0,5.295000225E-2
3.859782037E1,4.675050259E0,-6.232050419E0,5.295000225E-2
3.861782037E1,3.316050053E0,-2.958000183E0,4.360500276E-1
3.863782037E1,3.316050053E0,-2.958000183E0,4.360500276E-1
3.865782037E1,3.316050053E0,-2.958000183E0,4.360500276E-1
3.867782037E1,5.785950184E0,-3.838950157E0,-3.480000198E-1
3.869782037E1,5.785950184E0,-3.838950157E0,-3.480000198E-1
3.871782037E1,5.785950184E0,-3.838950157E0,-3.480000198E-1
3.873782037E1,5.785950184E0,-3.838950157E0,-3.480000198E-1
3.875782037E1,5.785950184E0,-3.838950157E0,-3.480000198E-1
3.877782037E1,9.328950882E0,-1.607505035E1,3.940050125E0
3.879782037E1,9.328950882E0,-1.607505035E1,3.940050125E0
3.881782037E1,9.328950882E0,-1.607505035E1,3.940050125E0
3.883782037E1,9.328950882E0,-1.607505035E1,3.940050125E0
3.885782037E1,9.328950882E0,-1.607505035E1,3.940050125E0
3.887782037E1,9.328950882E0,-1.607505035E1,3.940050125E0
3.889782037E1,9.328950882E0,-1.607505035E1,3.940050125E0
3.891782037E1,1.305000067E0,-1.111500072E1,2.848050117E0
3.893782037E1,1.305000067E0,-1.111500072E1,2.848050117E0
3.895782037E1,2.320050001E0,-1.189995098E1,3.154950142E0
3.897782037E1,2.320050001E0,-1.189995098E1,3.154950142E0
3.899782037E1,2.320050001E0,-1.189995098E1,3.154950142E0
3.901782037E1,3.967050076E0,-8.128050804E0,-1.075950027E0
3.903782037E1,3.967050076E0,-8.128050804E0,-1.075950027E0
3.905782037E1,3.967050076E0,-8.128050804E0,-1.075950027E0
3.907782037E1,3.967050076E0,-8.128050804E0,-1.075950027E0
3.909782037E1,3.967050076E0,-8.128050804E0,-1.075950027E0
3.911782037E1,3.909000158E0,-6.883050442E0,6.649500132E-1
3.913782037E1,3.909000158E0,-6.883050442E0,6.649500132E-1
3.915782037E1,4.675050259E0,-8.607000351E0,-7.995000482E-2
3.917782037E1,4.675050259E0,-8.607000351E0,-7.995000482E-2
3.919782037E1,4.675050259E0,-8.607000351E0,-7.995000482E-2
3.921782037E1,4.675050259E0,-8.607000351E0,-7.995000482E-2
3.923782037E1,4.675050259E0,-8.607000351E0,-7.995000482E-2
3.925782037E1,2.799000025E0,-9.985050201E0,1.738050103E0
3.927782037E1,2.799000025E0,-9.985050201E0,1.738050103E0
3.929782037E1,2.799000025E0,-9.985050201E0,1.738050103E0
3.931782037E1,2.799000025E0,-9.985050201E0,1.738050103E0
3.933782037E1,2.799000025E0,-9.985050201E0,1.738050103E0
3.935782037E1,2.799000025E0,-9.985050201E0,1.738050103E0
3.937782037E1,2.799000025E0,-9.985050201E0,1.738050103E0
3.939782037E1,2.473050117E0,-9.583050728E0,-2.910000086E-1
3.941782037E1,2.473050117E0,-9.583050728E0,-2.910000086E-1
3.943782037E1,2.473050117E0,-9.583050728E0,-2.910000086E-1
3.945782037E1,2.473050117E0,-9.583050728E0,-2.910000086E-1
3.947782037E1,2.473050117E0,-9.583050728E0,-2.910000086E-1
3.949782037E1,3.411000252E0,-1.442805099E1,2.025000095E0
3.951782037E1,3.411000252E0,-1.442805099E1,2.025000095E0
3.953782037E1,3.411000252E0,-1.442805099E1,2.025000095E0
3.955782037E1,3.411000252E0,-1.442805099E1,2.025000095E0
3.957782037E1,3.411000252E0,-1.442805099E1,2.025000095E0
3.959782037E1,3.411000252E0,-1.442805099E1,2.025000095E0
3.961782037E1,3.411000252E0,-1.442805099E1,2.025000095E0
3.963782037E1,4.522050381E0,-1.052205086E1,-9.610500336E-1
3.965782037E1,4.522050381E0,-1.052205086E1,-9.610500336E-1
3.967782037E1,4.522050381E0,-1.052205086E1,-9.610500336E-1
3.969782037E1,4.522050381E0,-1.052205086E1,-9.610500336E-1
3.971782037E1,4.522050381E0,-1.052205086E1,-9.610500336E-1
3.973782037E1,3.583950281E0,-9.889950752E0,2.629500031E-1
3.975782037E1,3.583950281E0,-9.889950752E0,2.629500031E-1
3.977782037E1,3.583950281E0,-9.889950752E0,2.629500031E-1
3.979782037E1,3.583950281E0,-9.889950752E0,2.629500031E-1
3.981782037E1,3.583950281E0,-9.889950752E0,2.629500031E-1
3.983782037E1,3.679950237E0,-8.452950478E0,-1.189500093E-1
3.985782037E1,3.679950237E0,-8.452950478E0,-1.189500093E-1
3.987782037E1,2.644950151E0,-8.013000488E0,-2.140500098E-1
3.989782037E1,2.644950151E0,-8.013000488E0,-2.140500098E-1
3.991782037E1,2.644950151E0,-8.013000488E0,-2.140500098E-1
3.993782037E1,2.644950151E0,-8.013000488E0,-2.140500098E-1
3.995782037E1,2.644950151E0,-8.013000488E0,-2.140500098E-1
3.997782037E1,4.714050293E0,-8.185050011E0,-6.360000372E-1
3.999782037E1,4.714050293E0,-8.185050011E0,-6.360000372E-1
4.001782037E1,4.714050293E0,-8.185050011E0,-6.360000372E-1
4.003782037E1,4.714050293E0,-8.185050011E0,-6.360000372E-1
4.005782037E1,4.714050293E0,-8.185050011E0,-6.360000372E-1
4.007782037E1,3.391950130E0,-5.122050285E0,-8.850000501E-1
4.009782037E1,3.391950130E0,-5.122050285E0,-8.850000501E-1
4.011782037E1,3.391950130E0,-5.122050285E0,-8.850000501E-1
4.013782037E1,3.391950130E0,-5.122050285E0,-8.850000501E-1
4.015782037E1,3.391950130E0,-5.122050285E0,-8.850000501E-1
4.017782037E1,6.054000378E0,-2.575050116E0,-1.477950096E0
4.019782037E1,6.054000378E0,-2.575050116E0,-1.477950096E0
4.021782037E1,8.657999992E0,-4.048950195E0,5.509500504E-1
4.023782037E1,8.657999992E0,-4.048950195E0,5.509500504E-1
4.025782037E1,8.657999992E0,-4.048950195E0,5.509500504E-1
4.027782037E1,8.657999992E0,-4.048950195E0,5.509500504E-1
4.029782037E1,8.657999992E0,-4.048950195E0,5.509500504E-1
4.031782037E1,6.034950256E0,-9.832050323E0,-5.902050495E0
4.033782037E1,6.034950256E0,-9.832050323E0,-5.902050495E0
4.035782037E1,6.436950207E0,-8.568000793E0,-3.297000170E0
4.037782037E1,6.436950207E0,-8.568000793E0,-3.297000170E0
4.039782037E1,6.436950207E0,-8.568000793E0,-3.297000170E0
4.041782037E1,4.330950260E0,-9.124050140E0,-4.060500264E-1
4.043782037E1,4.330950260E0,-9.124050140E0,-4.060500264E-1
4.045782037E1,4.330950260E0,-9.124050140E0,-4.060500264E-1
4.047782037E1,4.330950260E0,-9.124050140E0,-4.060500264E-1
4.049782037E1,4.330950260E0,-9.124050140E0,-4.060500264E-1
4.051782037E1,4.330950260E0,-9.124050140E0,-4.060500264E-1
4.053782037E1,4.330950260E0,-9.124050140E0,-4.060500264E-1
4.055782037E1,5.230950356E0,-8.224050522E0,1.738050103E0
4.057782037E1,5.230950356E0,-8.224050522E0,1.738050103E0
4.059782037E1,5.230950356E0,-8.224050522E0,1.738050103E0
4.061782037E1,5.230950356E0,-8.224050522E0,1.738050103E0
4.063782037E1,5.230950356E0,-8.224050522E0,1.738050103E0
4.065782037E1,4.369050026E0,-8.511000633E0,3.780000210E-1
4.067782037E1,4.369050026E0,-8.511000633E0,3.780000210E-1
4.069782037E1,3.277050257E0,-8.779050827E0,1.182000041E0
4.071782037E1,3.277050257E0,-8.779050827E0,1.182000041E0
4.073782037E1,3.277050257E0,-8.779050827E0,1.182000041E0
4.075782037E1,3.277050257E0,-8.779050827E0,1.182000041E0
4.077782037E1,3.277050257E0,-8.779050827E0,1.182000041E0
4.079782037E1,3.277050257E0,-8.779050827E0,1.182000041E0
4.081782037E1,3.277050257E0,-8.779050827E0,1.182000041E0
4.083782037E1,3.277050257E0,-8.779050827E0,1.182000041E0
4.085782037E1,3.277050257E0,-8.779050827E0,1.182000041E0
4.087782037E1,3.277050257E0,-8.779050827E0,1.182000041E0
4.089782037E1,1.726050138E0,-8.970000267E0,1.719000101E0
4.091782037E1,1.726050138E0,-8.970000267E0,1.719000101E0
4.093782037E1,1.939500123E-1,-9.775050163E0,2.101950169E0
4.095782037E1,1.939500123E-1,-9.775050163E0,2.101950169E0
4.097782037E1,1.939500123E-1,-9.775050163E0,2.101950169E0
4.099782037E1,2.140500098E-1,-1.006200027E1,2.656950235E0
4.101782037E1,2.140500098E-1,-1.006200027E1,2.656950235E0
4.103782037E1,3.201000214E0,-1.096200085E1,-6.930000186E-1
4.105782037E1,3.201000214E0,-1.096200085E1,-6.930000186E-1
4.107782037E1,3.201000214E0,-1.096200085E1,-6.930000186E-1
4.109782037E1,3.201000214E0,-1.096200085E1,-6.930000186E-1
4.111782037E1,3.201000214E0,-1.096200085E1,-6.930000186E-1
4.113782037E1,5.211000443E0,-1.299195099E1,2.158950090E0
4.115782037E1,5.211000443E0,-1.299195099E1,2.158950090E0
4.117782037E1,6.685950279E0,-9.526050568E0,-2.875950098E0
4.119782037E1,6.685950279E0,-9.526050568E0,-2.875950098E0
4.121782037E1,6.685950279E0,-9.526050568E0,-2.875950098E0
4.123782037E1,4.522050381E0,-8.452950478E0,4.740000367E-1
4.125782037E1,4.522050381E0,-8.452950478E0,4.740000367E-1
4.127782037E1,1.840950131E0,-1.264695072E1,5.529000282E0
4.129782037E1,1.840950131E0,-1.264695072E1,5.529000282E0
4.131782037E1,1.840950131E0,-1.264695072E1,5.529000282E0
4.133782037E1,1.840950131E0,-1.264695072E1,5.529000282E0
4.135782037E1,1.840950131E0,-1.264695072E1,5.529000282E0
