"Time (s)","Gyroscope x (rad/s)","Gyroscope y (rad/s)","Gyroscope z (rad/s)"
2.114661100E-2,2.337499987E-3,3.849999979E-3,1.484999992E-2
4.578401000E-2,0.000000000E0,0.000000000E0,0.000000000E0
6.178401200E-2,0.000000000E0,0.000000000E0,0.000000000E0
7.782037000E-2,-2.556124926E-1,-2.883374989E-1,3.911874890E-1
9.782037000E-2,-2.556124926E-1,-2.883374989E-1,3.911874890E-1
1.178203700E-1,-2.556124926E-1,-2.883374989E-1,3.911874890E-1
1.378203700E-1,-2.556124926E-1,-2.883374989E-1,3.911874890E-1
1.578203700E-1,-2.556124926E-1,-2.883374989E-1,3.911874890E-1
1.778203700E-1,-2.556124926E-1,-2.883374989E-1,3.911874890E-1
1.978203700E-1,-3.430624902E-1,-4.269374907E-1,-3.987500072E-2
2.178203700E-1,-3.430624902E-1,-4.269374907E-1,-3.987500072E-2
2.378203700E-1,-4.439874887E-1,-5.832750201E-1,7.974999957E-3
2.578203700E-1,-4.439874887E-1,-5.832750201E-1,7.974999957E-3
2.778203700E-1,-4.439874887E-1,-5.832750201E-1,7.974999957E-3
2.978203700E-1,-4.679124951E-1,-5.031124949E-1,-3.580499887E-1
3.178203700E-1,-4.679124951E-1,-5.031124949E-1,-3.580499887E-1
3.378203700E-1,-4.679124951E-1,-5.031124949E-1,-3.580499887E-1
3.578203700E-1,-4.679124951E-1,-5.031124949E-1,-3.580499887E-1
3.778203700E-1,-4.679124951E-1,-5.031124949E-1,-3.580499887E-1
3.978203700E-1,-5.079249740E-1,-9.831249714E-1,-6.082999706E-1
4.178203700E-1,-5.079249740E-1,-9.831249714E-1,-6.082999706E-1
4.378203700E-1,-3.889875114E-1,-8.276125193E-1,-8.215624690E-1
4.578203700E-1,-3.889875114E-1,-8.276125193E-1,-8.215624690E-1
4.778203700E-1,-3.889875114E-1,-8.276125193E-1,-8.215624690E-1
4.978203700E-1,-3.889875114E-1,-8.276125193E-1,-8.215624690E-1
5.178203700E-1,-3.889875114E-1,-8.276125193E-1,-8.215624690E-1
5.378203700E-1,-1.689874977E-1,-6.388249993E-1,-4.350500107E-1
5.578203700E-1,-1.689874977E-1,-6.388249993E-1,-4.350500107E-1
5.778203700E-1,-1.689874977E-1,-6.388249993E-1,-4.350500107E-1
5.978203700E-1,-1.689874977E-1,-6.388249993E-1,-4.350500107E-1
6.178203700E-1,-1.689874977E-1,-6.388249993E-1,-4.350500107E-1
6.378203700E-1,-2.802250087E-1,-1.153625026E-1,1.161874980E-1
6.578203700E-1,-2.802250087E-1,-1.153625026E-1,1.161874980E-1
6.778203700E-1,-2.902624905E-1,2.186249942E-2,4.113999903E-1
6.978203700E-1,-2.902624905E-1,2.186249942E-2,4.113999903E-1
7.178203700E-1,-2.902624905E-1,2.186249942E-2,4.113999903E-1
7.378203700E-1,-2.902624905E-1,2.186249942E-2,4.113999903E-1
7.578203700E-1,-2.902624905E-1,2.186249942E-2,4.113999903E-1
7.778203700E-1,-1.989624947E-1,3.280749917E-1,5.235999823E-1
7.978203700E-1,-1.989624947E-1,3.280749917E-1,5.235999823E-1
8.178203700E-1,-9.927500039E-2,7.149999961E-3,8.452125192E-1
8.378203700E-1,-9.927500039E-2,7.149999961E-3,8.452125192E-1
8.578203700E-1,-9.927500039E-2,7.149999961E-3,8.452125192E-1
8.778203700E-1,-2.158749998E-1,-7.063375115E-1,1.709537506E0
8.978203700E-1,-2.158749998E-1,-7.063375115E-1,1.709537506E0
9.178203700E-1,-2.158749998E-1,-7.063375115E-1,1.709537506E0
9.378203700E-1,-2.158749998E-1,-7.063375115E-1,1.709537506E0
9.578203700E-1,-2.158749998E-1,-7.063375115E-1,1.709537506E0
9.778203700E-1,-2.158749998E-1,-7.063375115E-1,1.709537506E0
9.978203700E-1,-2.158749998E-1,-7.063375115E-1,1.709537506E0
1.017820370E0,3.063499928E-1,-2.203987598E0,1.615762472E0
1.037820370E0,3.063499928E-1,-2.203987598E0,1.615762472E0
1.057820370E0,3.063499928E-1,-2.203987598E0,1.615762472E0
1.077820370E0,3.063499928E-1,-2.203987598E0,1.615762472E0
1.097820370E0,3.063499928E-1,-2.203987598E0,1.615762472E0
1.117820370E0,1.754499972E-1,-7.759125233E-1,7.856749892E-1
1.137820370E0,1.754499972E-1,-7.759125233E-1,7.856749892E-1
1.157820370E0,1.754499972E-1,-7.759125233E-1,7.856749892E-1
1.177820370E0,1.754499972E-1,-7.759125233E-1,7.856749892E-1
1.197820370E0,1.754499972E-1,-7.759125233E-1,7.856749892E-1
1.217820370E0,-8.786249906E-2,8.555250168E-1,5.417500138E-1
1.237820370E0,-8.786249906E-2,8.555250168E-1,5.417500138E-1
1.257820370E0,-1.874125004E-1,1.223199964E0,4.996750057E-1
1.277820370E0,-1.874125004E-1,1.223199964E0,4.996750057E-1
1.297820370E0,-1.874125004E-1,1.223199964E0,4.996750057E-1
1.317820370E0,-1.874125004E-1,1.223199964E0,4.996750057E-1
1.337820370E0,-1.874125004E-1,1.223199964E0,4.996750057E-1
1.357820370E0,-1.988250017E-1,7.942000031E-1,4.525125027E-1
1.377820370E0,-1.988250017E-1,7.942000031E-1,4.525125027E-1
1.397820370E0,-1.988250017E-1,7.942000031E-1,4.525125027E-1
1.417820370E0,-1.988250017E-1,7.942000031E-1,4.525125027E-1
1.437820370E0,-1.988250017E-1,7.942000031E-1,4.525125027E-1
1.457820370E0,-1.183874980E-1,-1.196250021E-1,5.471125245E-1
1.477820370E0,-1.183874980E-1,-1.196250021E-1,5.471125245E-1
1.497820370E0,-4.619999975E-2,-4.107125103E-1,5.746124983E-1
1.517820370E0,-4.619999975E-2,-4.107125103E-1,5.746124983E-1
1.537820370E0,-4.619999975E-2,-4.107125103E-1,5.746124983E-1
1.557820370E0,-4.619999975E-2,-4.107125103E-1,5.746124983E-1
1.577820370E0,-4.619999975E-2,-4.107125103E-1,5.746124983E-1
1.597820370E0,-4.619999975E-2,-4.107125103E-1,5.746124983E-1
1.617820370E0,-4.619999975E-2,-4.107125103E-1,5.746124983E-1
1.637820370E0,8.964999765E-2,-6.751250029E-1,6.615124941E-1
1.657820370E0,8.964999765E-2,-6.751250029E-1,6.615124941E-1
1.677820370E0,8.964999765E-2,-6.751250029E-1,6.615124941E-1
1.697820370E0,1.095874980E-1,-6.645374894E-1,5.607249737E-1
1.717820370E0,1.095874980E-1,-6.645374894E-1,5.607249737E-1
1.737820370E0,1.095874980E-1,-6.645374894E-1,5.607249737E-1
1.757820370E0,1.095874980E-1,-6.645374894E-1,5.607249737E-1
1.777820370E0,1.095874980E-1,-6.645374894E-1,5.607249737E-1
1.797820370E0,1.095874980E-1,-6.645374894E-1,5.607249737E-1
1.817820370E0,1.095874980E-1,-6.645374894E-1,5.607249737E-1
1.837820370E0,1.518000066E-1,-4.720374942E-1,4.316124916E-1
1.857820370E0,1.518000066E-1,-4.720374942E-1,4.316124916E-1
1.877820370E0,1.518000066E-1,-4.720374942E-1,4.316124916E-1
1.897820370E0,1.518000066E-1,-4.720374942E-1,4.316124916E-1
1.917820370E0,1.518000066E-1,-4.720374942E-1,4.316124916E-1
1.937820370E0,2.404875010E-1,-6.258999705E-1,1.185387492E0
1.957820370E0,2.404875010E-1,-6.258999705E-1,1.185387492E0
1.977820370E0,2.404875010E-1,-6.258999705E-1,1.185387492E0
1.997820370E0,2.404875010E-1,-6.258999705E-1,1.185387492E0
2.017820370E0,2.404875010E-1,-6.258999705E-1,1.185387492E0
2.037820370E0,4.123624861E-1,-1.926512480E0,1.268162489E0
2.057820370E0,4.123624861E-1,-1.926512480E0,1.268162489E0
2.077820370E0,4.123624861E-1,-1.926512480E0,1.268162489E0
2.077820370E0,4.485250115E-1,-2.150637388E0,8.690000176E-1
2.117820370E0,4.485250115E-1,-2.150637388E0,8.690000176E-1
2.137820370E0,4.485250115E-1,-2.150637388E0,8.690000176E-1
2.157820370E0,4.485250115E-1,-2.150637388E0,8.690000176E-1
2.177820370E0,4.276250005E-1,-2.147062540E0,5.090249777E-1
2.197820370E0,4.276250005E-1,-2.147062540E0,5.090249777E-1
2.217820370E0,4.276250005E-1,-2.147062540E0,5.090249777E-1
2.237820370E0,4.276250005E-1,-2.147062540E0,5.090249777E-1
2.257820370E0,4.276250005E-1,-2.147062540E0,5.090249777E-1
2.277820370E0,5.946875215E-1,-1.719162464E0,1.130524993E0
2.297820370E0,5.946875215E-1,-1.719162464E0,1.130524993E0
2.317820370E0,4.218499959E-1,-1.412537456E0,8.205999732E-1
2.337820370E0,4.218499959E-1,-1.412537456E0,8.205999732E-1
2.357820370E0,4.218499959E-1,-1.412537456E0,8.205999732E-1
2.377820370E0,4.218499959E-1,-1.412537456E0,8.205999732E-1
2.397820370E0,4.218499959E-1,-1.412537456E0,8.205999732E-1
2.417820370E0,5.156250000E-1,-8.106999993E-1,9.356874824E-1
2.437820370E0,5.156250000E-1,-8.106999993E-1,9.356874824E-1
2.457820370E0,5.137000084E-1,-4.874374866E-1,7.530875206E-1
2.477820370E0,5.137000084E-1,-4.874374866E-1,7.530875206E-1
2.497820370E0,5.137000084E-1,-4.874374866E-1,7.530875206E-1
2.517820370E0,4.211624861E-1,-1.915374994E-1,3.213374913E-1
2.537820370E0,4.211624861E-1,-1.915374994E-1,3.213374913E-1
2.557820370E0,4.211624861E-1,-1.915374994E-1,3.213374913E-1
2.577820370E0,4.211624861E-1,-1.915374994E-1,3.213374913E-1
2.597820370E0,4.211624861E-1,-1.915374994E-1,3.213374913E-1
2.617820370E0,4.211624861E-1,-1.915374994E-1,3.213374913E-1
2.637820370E0,4.211624861E-1,-1.915374994E-1,3.213374913E-1
2.657820370E0,-8.648750186E-1,-5.346000195E-1,-4.435749948E-1
2.677820370E0,-8.648750186E-1,-5.346000195E-1,-4.435749948E-1
2.697820370E0,-8.648750186E-1,-5.346000195E-1,-4.435749948E-1
2.717820370E0,-8.648750186E-1,-5.346000195E-1,-4.435749948E-1
2.737820370E0,-8.648750186E-1,-5.346000195E-1,-4.435749948E-1
2.757820370E0,-8.648750186E-1,-5.346000195E-1,-4.435749948E-1
2.777820370E0,-8.648750186E-1,-5.346000195E-1,-4.435749948E-1
2.797820370E0,-8.648750186E-1,-5.346000195E-1,-4.435749948E-1
2.817820370E0,-8.648750186E-1,-5.346000195E-1,-4.435749948E-1
2.837820370E0,-8.648750186E-1,-5.346000195E-1,-4.435749948E-1
2.857820370E0,-8.648750186E-1,-5.346000195E-1,-4.435749948E-1
2.877820370E0,-8.648750186E-1,-5.346000195E-1,-4.435749948E-1
2.897820370E0,-8.648750186E-1,-5.346000195E-1,-4.435749948E-1
2.917820370E0,-8.648750186E-1,-5.346000195E-1,-4.435749948E-1
2.937820370E0,-8.648750186E-1,-5.346000195E-1,-4.435749948E-1
2.957820370E0,-8.648750186E-1,-5.346000195E-1,-4.435749948E-1
2.977820370E0,-8.648750186E-1,-5.346000195E-1,-4.435749948E-1
2.997820370E0,-1.398375034E-1,-1.087625027E-1,9.062625170E-1
3.017820370E0,-1.398375034E-1,-1.087625027E-1,9.062625170E-1
3.037820370E0,-1.398375034E-1,-1.087625027E-1,9.062625170E-1
3.057820370E0,-1.398375034E-1,-1.087625027E-1,9.062625170E-1
3.077820370E0,-1.398375034E-1,-1.087625027E-1,9.062625170E-1
3.097820370E0,2.311374992E-1,3.363249898E-1,7.770124674E-1
3.117820370E0,2.311374992E-1,3.363249898E-1,7.770124674E-1
3.137820370E0,4.584249854E-1,1.065625027E-1,1.204637527E0
3.157820370E0,4.584249854E-1,1.065625027E-1,1.204637527E0
3.177820370E0,4.584249854E-1,1.065625027E-1,1.204637527E0
3.197820370E0,4.584249854E-1,1.065625027E-1,1.204637527E0
3.217820370E0,4.584249854E-1,1.065625027E-1,1.204637527E0
3.237820370E0,2.617999911E-1,7.521250099E-2,9.878000021E-1
3.257820370E0,2.617999911E-1,7.521250099E-2,9.878000021E-1
3.277820370E0,5.953750014E-2,-1.292499993E-2,9.299125075E-1
3.297820370E0,5.953750014E-2,-1.292499993E-2,9.299125075E-1
3.317820370E0,5.953750014E-2,-1.292499993E-2,9.299125075E-1
3.337820370E0,-7.122500241E-2,2.051499933E-1,3.103374839E-1
3.357820370E0,-7.122500241E-2,2.051499933E-1,3.103374839E-1
3.377820370E0,-7.122500241E-2,2.051499933E-1,3.103374839E-1
3.397820370E0,-7.122500241E-2,2.051499933E-1,3.103374839E-1
3.417820370E0,-7.122500241E-2,2.051499933E-1,3.103374839E-1
3.437820370E0,-7.122500241E-2,2.051499933E-1,3.103374839E-1
3.457820370E0,-7.122500241E-2,2.051499933E-1,3.103374839E-1
3.477820370E0,-1.160499975E-1,1.512499992E-2,4.683249891E-1
3.497820370E0,-1.160499975E-1,1.512499992E-2,4.683249891E-1
3.517820370E0,-1.160499975E-1,1.512499992E-2,4.683249891E-1
3.537820370E0,-1.160499975E-1,1.512499992E-2,4.683249891E-1
3.557820370E0,-1.160499975E-1,1.512499992E-2,4.683249891E-1
3.577820370E0,-1.160499975E-1,1.512499992E-2,4.683249891E-1
3.597820370E0,-1.160499975E-1,1.512499992E-2,4.683249891E-1
3.617820370E0,-1.055999994E-1,-9.019999951E-2,3.232625127E-1
3.617820370E0,-1.055999994E-1,-9.019999951E-2,3.232625127E-1
3.657820370E0,-1.055999994E-1,-9.019999951E-2,3.232625127E-1
3.677820370E0,-1.055999994E-1,-9.019999951E-2,3.232625127E-1
3.697820370E0,-1.055999994E-1,-9.019999951E-2,3.232625127E-1
3.717820370E0,1.007874981E-1,-4.193750024E-1,9.817499667E-2
3.737820370E0,1.007874981E-1,-4.193750024E-1,9.817499667E-2
3.757820370E0,1.007874981E-1,-4.193750024E-1,9.817499667E-2
3.777820370E0,1.007874981E-1,-4.193750024E-1,9.817499667E-2
3.797820370E0,1.007874981E-1,-4.193750024E-1,9.817499667E-2
3.817820370E0,9.267500043E-2,-3.933874965E-1,1.141249947E-2
3.837820370E0,9.267500043E-2,-3.933874965E-1,1.141249947E-2
3.857820370E0,9.267500043E-2,-3.933874965E-1,1.141249947E-2
3.877820370E0,9.267500043E-2,-3.933874965E-1,1.141249947E-2
3.897820370E0,9.267500043E-2,-3.933874965E-1,1.141249947E-2
3.917820370E0,5.884999782E-2,-4.569124877E-1,2.393874973E-1
3.937820370E0,5.884999782E-2,-4.569124877E-1,2.393874973E-1
3.957820370E0,-3.448500037E-1,-2.492875010E-1,1.304875016E-1
3.977820370E0,-3.448500037E-1,-2.492875010E-1,1.304875016E-1
3.997820370E0,-3.448500037E-1,-2.492875010E-1,1.304875016E-1
4.017820370E0,-3.448500037E-1,-2.492875010E-1,1.304875016E-1
4.037820370E0,-3.448500037E-1,-2.492875010E-1,1.304875016E-1
4.057820370E0,-4.221250117E-1,6.407500058E-2,4.265249968E-1
4.077820370E0,-4.221250117E-1,6.407500058E-2,4.265249968E-1
4.097820370E0,-4.221250117E-1,6.407500058E-2,4.265249968E-1
4.117820370E0,-4.221250117E-1,6.407500058E-2,4.265249968E-1
4.137820370E0,-4.221250117E-1,6.407500058E-2,4.265249968E-1
4.157820370E0,-7.479999959E-2,2.923249900E-1,7.114250064E-1
4.177820370E0,-7.479999959E-2,2.923249900E-1,7.114250064E-1
4.197820370E0,-1.264999993E-2,2.012999952E-1,7.925499678E-1
4.217820370E0,-1.264999993E-2,2.012999952E-1,7.925499678E-1
4.237820370E0,-1.264999993E-2,2.012999952E-1,7.925499678E-1
4.257820370E0,-1.264999993E-2,2.012999952E-1,7.925499678E-1
4.277820370E0,-1.264999993E-2,2.012999952E-1,7.925499678E-1
4.297820370E0,-5.541250110E-2,-1.643124968E-1,6.711375117E-1
4.317820370E0,-5.541250110E-2,-1.643124968E-1,6.711375117E-1
4.337820370E0,-5.541250110E-2,-1.643124968E-1,6.711375117E-1
4.357820370E0,-5.541250110E-2,-1.643124968E-1,6.711375117E-1
4.377820370E0,-5.541250110E-2,-1.643124968E-1,6.711375117E-1
4.397820370E0,-1.912624985E-1,-3.997125030E-1,2.932874858E-1
4.417820370E0,-1.912624985E-1,-3.997125030E-1,2.932874858E-1
4.437820370E0,-1.120624989E-1,-5.622375011E-1,2.752749920E-1
4.457820370E0,-1.120624989E-1,-5.622375011E-1,2.752749920E-1
4.477820370E0,-1.120624989E-1,-5.622375011E-1,2.752749920E-1
4.497820370E0,-1.120624989E-1,-5.622375011E-1,2.752749920E-1
4.517820370E0,-1.120624989E-1,-5.622375011E-1,2.752749920E-1
4.537820370E0,2.850374877E-1,-8.254125118E-1,1.601874977E-1
4.557820370E0,2.850374877E-1,-8.254125118E-1,1.601874977E-1
4.577820370E0,2.850374877E-1,-8.254125118E-1,1.601874977E-1
4.597820370E0,2.850374877E-1,-8.254125118E-1,1.601874977E-1
4.617820370E0,2.850374877E-1,-8.254125118E-1,1.601874977E-1
4.637820370E0,-4.712125063E-1,-1.589500010E-1,-5.059999973E-2
4.657820370E0,-4.712125063E-1,-1.589500010E-1,-5.059999973E-2
4.677820370E0,-2.569875121E-1,-1.032624990E-1,-1.275999993E-1
4.697820370E0,-2.569875121E-1,-1.032624990E-1,-1.275999993E-1
4.717820370E0,-2.569875121E-1,-1.032624990E-1,-1.275999993E-1
4.737820370E0,-1.435499936E-1,-1.472624987E-1,5.555000156E-2
4.757820370E0,-1.435499936E-1,-1.472624987E-1,5.555000156E-2
4.777820370E0,1.225124970E-1,-1.920875013E-1,3.328875005E-1
4.797820370E0,1.225124970E-1,-1.920875013E-1,3.328875005E-1
4.817820370E0,8.808249831E-1,-5.116375089E-1,3.948999941E-1
4.837820370E0,8.808249831E-1,-5.116375089E-1,3.948999941E-1
4.857820370E0,8.808249831E-1,-5.116375089E-1,3.948999941E-1
4.877820370E0,1.135749936E0,-3.525500000E-1,1.769624949E-1
4.897820370E0,1.135749936E0,-3.525500000E-1,1.769624949E-1
4.917820370E0,1.135749936E0,-3.525500000E-1,1.769624949E-1
4.937820370E0,1.135749936E0,-3.525500000E-1,1.769624949E-1
4.957820370E0,1.135749936E0,-3.525500000E-1,1.769624949E-1
4.977820370E0,2.171124965E-1,9.063999653E-1,-7.986000180E-1
4.997820370E0,2.171124965E-1,9.063999653E-1,-7.986000180E-1
5.017820370E0,-2.561624944E-1,1.149087548E0,-9.987999797E-1
5.037820370E0,-2.561624944E-1,1.149087548E0,-9.987999797E-1
5.057820370E0,-2.561624944E-1,1.149087548E0,-9.987999797E-1
5.077820370E0,-2.561624944E-1,1.149087548E0,-9.987999797E-1
5.097820370E0,-2.561624944E-1,1.149087548E0,-9.987999797E-1
5.117820370E0,-1.134237528E0,8.801375031E-1,-6.732000113E-1
5.137820370E0,-1.134237528E0,8.801375031E-1,-6.732000113E-1
5.157820370E0,-9.703375101E-1,5.384500027E-1,-4.259749949E-1
5.177820370E0,-9.703375101E-1,5.384500027E-1,-4.259749949E-1
5.197820370E0,-9.703375101E-1,5.384500027E-1,-4.259749949E-1
5.217820370E0,3.327500075E-2,-3.815625012E-1,1.780624986E-1
5.237820370E0,3.327500075E-2,-3.815625012E-1,1.780624986E-1
5.257820370E0,5.761250108E-2,-5.880874991E-1,1.313125044E-1
5.277820370E0,5.761250108E-2,-5.880874991E-1,1.313125044E-1
5.297820370E0,5.761250108E-2,-5.880874991E-1,1.313125044E-1
5.317820370E0,5.761250108E-2,-5.880874991E-1,1.313125044E-1
5.337820370E0,5.761250108E-2,-5.880874991E-1,1.313125044E-1
5.357820370E0,6.595875025E-1,-8.193625212E-1,-3.462249935E-1
5.377820370E0,6.595875025E-1,-8.193625212E-1,-3.462249935E-1
5.397820370E0,6.595875025E-1,-8.193625212E-1,-3.462249935E-1
5.417820370E0,6.595875025E-1,-8.193625212E-1,-3.462249935E-1
5.437820370E0,6.595875025E-1,-8.193625212E-1,-3.462249935E-1
5.457820370E0,-1.819124967E-1,-1.567499936E-1,-1.491874933E0
5.477820370E0,-1.819124967E-1,-1.567499936E-1,-1.491874933E0
5.497820370E0,6.191624999E-1,-1.304462552E0,-9.294999838E-1
5.517820370E0,6.191624999E-1,-1.304462552E0,-9.294999838E-1
5.537820370E0,6.191624999E-1,-1.304462552E0,-9.294999838E-1
5.557820370E0,5.205749869E-1,-1.646700025E0,-6.762250066E-1
5.577820370E0,5.205749869E-1,-1.646700025E0,-6.762250066E-1
5.597820370E0,5.205749869E-1,-1.646700025E0,-6.762250066E-1
5.617820370E0,5.205749869E-1,-1.646700025E0,-6.762250066E-1
5.637820370E0,5.205749869E-1,-1.646700025E0,-6.762250066E-1
5.657820370E0,5.205749869E-1,-1.646700025E0,-6.762250066E-1
5.677820370E0,5.205749869E-1,-1.646700025E0,-6.762250066E-1
5.697820370E0,-1.932150006E0,-7.469000220E-1,2.440624982E-1
5.717820370E0,-1.932150006E0,-7.469000220E-1,2.440624982E-1
5.737820370E0,-1.642437458E0,1.430000067E-1,-3.301374912E-1
5.757820370E0,-1.642437458E0,1.430000067E-1,-3.301374912E-1
5.777820370E0,-1.642437458E0,1.430000067E-1,-3.301374912E-1
5.797820370E0,-3.459500074E-1,3.470500112E-1,7.301250100E-2
5.817820370E0,-3.459500074E-1,3.470500112E-1,7.301250100E-2
5.837820370E0,6.274124980E-1,5.202999711E-1,1.467124969E-1
5.857820370E0,6.274124980E-1,5.202999711E-1,1.467124969E-1
5.877820370E0,6.274124980E-1,5.202999711E-1,1.467124969E-1
5.897820370E0,6.274124980E-1,5.202999711E-1,1.467124969E-1
5.917820370E0,6.274124980E-1,5.202999711E-1,1.467124969E-1
5.937820370E0,9.821624756E-1,6.839249730E-1,7.562499959E-3
5.957820370E0,9.821624756E-1,6.839249730E-1,7.562499959E-3
5.977820370E0,9.821624756E-1,6.839249730E-1,7.562499959E-3
5.997820370E0,9.821624756E-1,6.839249730E-1,7.562499959E-3
6.017820370E0,9.821624756E-1,6.839249730E-1,7.562499959E-3
6.037820370E0,5.308874846E-1,6.393750012E-2,2.213750035E-2
6.057820370E0,5.308874846E-1,6.393750012E-2,2.213750035E-2
6.077820370E0,-3.778499961E-1,2.631750107E-1,-6.682500243E-2
6.097820370E0,-3.778499961E-1,2.631750107E-1,-6.682500243E-2
6.117820370E0,-3.778499961E-1,2.631750107E-1,-6.682500243E-2
6.137820370E0,-3.778499961E-1,2.631750107E-1,-6.682500243E-2
6.157820370E0,-3.778499961E-1,2.631750107E-1,-6.682500243E-2
6.177820370E0,1.948374957E-1,-4.591124952E-1,3.117125034E-1
6.197820370E0,1.948374957E-1,-4.591124952E-1,3.117125034E-1
6.217820370E0,1.948374957E-1,-4.591124952E-1,3.117125034E-1
6.237820370E0,1.948374957E-1,-4.591124952E-1,3.117125034E-1
6.257820370E0,1.948374957E-1,-4.591124952E-1,3.117125034E-1
6.277820370E0,-5.202999711E-1,2.564375103E-1,7.369999588E-2
6.297820370E0,-5.202999711E-1,2.564375103E-1,7.369999588E-2
6.317820370E0,-9.391250014E-1,4.999499917E-1,7.562500238E-2
6.337820370E0,-9.391250014E-1,4.999499917E-1,7.562500238E-2
6.357820370E0,-9.391250014E-1,4.999499917E-1,7.562500238E-2
6.377820370E0,3.312374949E-1,1.215500012E-1,-3.720749915E-1
6.397820370E0,3.312374949E-1,1.215500012E-1,-3.720749915E-1
6.417820370E0,2.281125039E-1,-2.144999988E-2,-1.926375031E-1
6.437820370E0,2.281125039E-1,-2.144999988E-2,-1.926375031E-1
6.457820370E0,2.281125039E-1,-2.144999988E-2,-1.926375031E-1
6.477820370E0,2.281125039E-1,-2.144999988E-2,-1.926375031E-1
6.497820370E0,2.281125039E-1,-2.144999988E-2,-1.926375031E-1
6.517820370E0,9.871125221E-1,-6.978124976E-1,-2.343000025E-1
6.537820370E0,9.871125221E-1,-6.978124976E-1,-2.343000025E-1
6.557820370E0,9.871125221E-1,-6.978124976E-1,-2.343000025E-1
6.577820370E0,9.871125221E-1,-6.978124976E-1,-2.343000025E-1
6.597820370E0,9.871125221E-1,-6.978124976E-1,-2.343000025E-1
6.617820370E0,-2.847625017E-1,-6.480374932E-1,2.755500078E-1
6.637820370E0,-2.847625017E-1,-6.480374932E-1,2.755500078E-1
6.657820370E0,-2.226125002E-1,-1.074699998E0,5.321249962E-1
6.677820370E0,-2.226125002E-1,-1.074699998E0,5.321249962E-1
6.697820370E0,-2.226125002E-1,-1.074699998E0,5.321249962E-1
6.717820370E0,-2.226125002E-1,-1.074699998E0,5.321249962E-1
6.737820370E0,-2.226125002E-1,-1.074699998E0,5.321249962E-1
6.757820370E0,-7.002875209E-1,-1.065899968E0,2.758249938E-1
6.777820370E0,-7.002875209E-1,-1.065899968E0,2.758249938E-1
6.797820370E0,1.002650023E0,-7.851250172E-1,-6.242499948E-1
6.817820370E0,1.002650023E0,-7.851250172E-1,-6.242499948E-1
6.837820370E0,1.002650023E0,-7.851250172E-1,-6.242499948E-1
6.857820370E0,1.100824952E0,-1.241625026E-1,-5.175499916E-1
6.877820370E0,1.100824952E0,-1.241625026E-1,-5.175499916E-1
6.897820370E0,6.256250143E-1,9.956374764E-1,-1.663200021E0
6.917820370E0,6.256250143E-1,9.956374764E-1,-1.663200021E0
6.937820370E0,6.256250143E-1,9.956374764E-1,-1.663200021E0
6.957820370E0,6.256250143E-1,9.956374764E-1,-1.663200021E0
6.977820370E0,6.256250143E-1,9.956374764E-1,-1.663200021E0
6.997820370E0,6.256250143E-1,9.956374764E-1,-1.663200021E0
7.017820370E0,6.256250143E-1,9.956374764E-1,-1.663200021E0
7.037820370E0,6.256250143E-1,9.956374764E-1,-1.663200021E0
7.057820370E0,6.256250143E-1,9.956374764E-1,-1.663200021E0
7.077820370E0,6.256250143E-1,9.956374764E-1,-1.663200021E0
7.097820370E0,-6.705874801E-1,1.077450037E0,3.286249936E-2
7.117820370E0,-6.705874801E-1,1.077450037E0,3.286249936E-2
7.137820370E0,-8.845375180E-1,1.897500008E-1,9.037874937E-1
7.157820370E0,-8.845375180E-1,1.897500008E-1,9.037874937E-1
7.177820370E0,-8.845375180E-1,1.897500008E-1,9.037874937E-1
7.197820370E0,-6.634374857E-1,4.702499881E-2,4.717625082E-1
7.217820370E0,-6.634374857E-1,4.702499881E-2,4.717625082E-1
7.237820370E0,-5.218124986E-1,4.229499996E-1,-1.992374957E-1
7.257820370E0,-5.218124986E-1,4.229499996E-1,-1.992374957E-1
7.277820370E0,-5.218124986E-1,4.229499996E-1,-1.992374957E-1
7.297820370E0,-5.218124986E-1,4.229499996E-1,-1.992374957E-1
7.317820370E0,-5.218124986E-1,4.229499996E-1,-1.992374957E-1
7.337820370E0,-2.495625019E-1,2.905375063E-1,-7.878749818E-2
7.357820370E0,-2.495625019E-1,2.905375063E-1,-7.878749818E-2
7.377820370E0,-2.495625019E-1,2.905375063E-1,-7.878749818E-2
7.397820370E0,-2.495625019E-1,2.905375063E-1,-7.878749818E-2
7.417820370E0,-2.495625019E-1,2.905375063E-1,-7.878749818E-2
7.437820370E0,-1.314774990E0,4.083749950E-1,4.988499880E-1
7.457820370E0,-1.314774990E0,4.083749950E-1,4.988499880E-1
7.477820370E0,-4.592499882E-2,7.301250100E-2,5.293750018E-2
7.497820370E0,-4.592499882E-2,7.301250100E-2,5.293750018E-2
7.517820370E0,-4.592499882E-2,7.301250100E-2,5.293750018E-2
7.537820370E0,-4.592499882E-2,7.301250100E-2,5.293750018E-2
7.557820370E0,-4.592499882E-2,7.301250100E-2,5.293750018E-2
7.577820370E0,-4.592499882E-2,7.301250100E-2,5.293750018E-2
7.597820370E0,-4.592499882E-2,7.301250100E-2,5.293750018E-2
7.617820370E0,7.090874910E-1,-3.222999871E-1,-2.142249942E-1
7.637820370E0,7.090874910E-1,-3.222999871E-1,-2.142249942E-1
7.657820370E0,7.090874910E-1,-3.222999871E-1,-2.142249942E-1
7.677820370E0,2.460287571E0,-1.459149957E0,1.414874941E-1
7.697820370E0,2.460287571E0,-1.459149957E0,1.414874941E-1
7.717820370E0,6.861250103E-2,-6.041749716E-1,4.456374943E-1
7.737820370E0,6.861250103E-2,-6.041749716E-1,4.456374943E-1
7.757820370E0,6.861250103E-2,-6.041749716E-1,4.456374943E-1
7.777820370E0,6.861250103E-2,-6.041749716E-1,4.456374943E-1
7.797820370E0,6.861250103E-2,-6.041749716E-1,4.456374943E-1
7.817820370E0,6.861250103E-2,-6.041749716E-1,4.456374943E-1
7.837820370E0,6.861250103E-2,-6.041749716E-1,4.456374943E-1
7.857820370E0,6.861250103E-2,-6.041749716E-1,4.456374943E-1
7.877820370E0,6.861250103E-2,-6.041749716E-1,4.456374943E-1
7.897820370E0,6.861250103E-2,-6.041749716E-1,4.456374943E-1
7.917820370E0,-4.943124950E-1,-6.503749639E-2,-1.259087443E0
7.937820370E0,-4.943124950E-1,-6.503749639E-2,-1.259087443E0
7.957820370E0,-3.392125070E-1,4.068624973E-1,-1.124199986E0
7.977820370E0,-3.392125070E-1,4.068624973E-1,-1.124199986E0
7.997820370E0,-3.392125070E-1,4.068624973E-1,-1.124199986E0
8.017820370E0,-3.392125070E-1,4.068624973E-1,-1.124199986E0
8.037820370E0,-3.392125070E-1,4.068624973E-1,-1.124199986E0
8.057820370E0,-3.392125070E-1,4.068624973E-1,-1.124199986E0
8.077820370E0,-3.392125070E-1,4.068624973E-1,-1.124199986E0
8.097820370E0,-3.392125070E-1,4.068624973E-1,-1.124199986E0
8.117820370E0,-3.392125070E-1,4.068624973E-1,-1.124199986E0
8.137820370E0,-3.392125070E-1,4.068624973E-1,-1.124199986E0
8.157820370E0,1.465750039E-1,7.111499906E-1,5.432624817E-1
8.177820370E0,1.465750039E-1,7.111499906E-1,5.432624817E-1
8.197820370E0,1.498750001E-1,2.916375101E-1,7.672500014E-1
8.217820370E0,1.498750001E-1,2.916375101E-1,7.672500014E-1
8.237820370E0,1.498750001E-1,2.916375101E-1,7.672500014E-1
8.257820370E0,-6.173750013E-2,-1.703625023E-1,8.555250168E-1
8.277820370E0,-6.173750013E-2,-1.703625023E-1,8.555250168E-1
8.297820370E0,-6.114624739E-1,2.932874858E-1,1.546874940E-1
8.317820370E0,-6.114624739E-1,2.932874858E-1,1.546874940E-1
8.337820370E0,-6.050000191E-1,5.044875145E-1,-1.696749926E-1
8.357820370E0,-6.050000191E-1,5.044875145E-1,-1.696749926E-1
8.377820370E0,-6.050000191E-1,5.044875145E-1,-1.696749926E-1
8.397820370E0,-5.596249923E-2,9.171249717E-2,2.653750032E-2
8.417820370E0,-5.596249923E-2,9.171249717E-2,2.653750032E-2
8.437820370E0,-5.596249923E-2,9.171249717E-2,2.653750032E-2
8.457820370E0,-5.596249923E-2,9.171249717E-2,2.653750032E-2
8.477820370E0,-5.596249923E-2,9.171249717E-2,2.653750032E-2
8.497820370E0,-5.161749721E-1,4.001250118E-2,1.388749927E-1
8.517820370E0,-5.161749721E-1,4.001250118E-2,1.388749927E-1
8.537820370E0,-1.609300017E0,2.613874972E-1,3.148750067E-1
8.557820370E0,-1.609300017E0,2.613874972E-1,3.148750067E-1
8.577820370E0,-1.609300017E0,2.613874972E-1,3.148750067E-1
8.597820370E0,-1.609300017E0,2.613874972E-1,3.148750067E-1
8.617820370E0,-1.609300017E0,2.613874972E-1,3.148750067E-1
8.637820370E0,1.088037491E0,-5.142499804E-1,-2.155999988E-1
8.657820370E0,1.088037491E0,-5.142499804E-1,-2.155999988E-1
8.677820370E0,2.804999985E-2,-7.906249911E-2,-3.634124994E-1
8.697820370E0,2.804999985E-2,-7.906249911E-2,-3.634124994E-1
8.717820370E0,2.804999985E-2,-7.906249911E-2,-3.634124994E-1
8.737820370E0,1.364137530E0,-1.185250044E0,1.952500045E-1
8.757820370E0,1.364137530E0,-1.185250044E0,1.952500045E-1
8.777820370E0,1.364137530E0,-1.185250044E0,1.952500045E-1
8.797820370E0,1.364137530E0,-1.185250044E0,1.952500045E-1
8.817820370E0,1.364137530E0,-1.185250044E0,1.952500045E-1
8.837820370E0,1.364137530E0,-1.185250044E0,1.952500045E-1
8.857820370E0,1.364137530E0,-1.185250044E0,1.952500045E-1
8.877820370E0,1.364137530E0,-1.185250044E0,1.952500045E-1
8.897820370E0,1.364137530E0,-1.185250044E0,1.952500045E-1
8.917820370E0,1.364137530E0,-1.185250044E0,1.952500045E-1
8.937820370E0,1.364137530E0,-1.185250044E0,1.952500045E-1
8.957820370E0,1.364137530E0,-1.185250044E0,1.952500045E-1
8.977820370E0,-1.259775043E0,-6.073374748E-1,-3.638249934E-1
8.997820370E0,-1.259775043E0,-6.073374748E-1,-3.638249934E-1
9.017820370E0,1.833699942E0,-7.794874907E-1,-1.092299938E0
9.037820370E0,1.833699942E0,-7.794874907E-1,-1.092299938E0
9.057820370E0,1.833699942E0,-7.794874907E-1,-1.092299938E0
9.077820370E0,1.681212544E0,-5.119125247E-1,-1.589500010E-1
9.097820370E0,1.681212544E0,-5.119125247E-1,-1.589500010E-1
9.117820370E0,1.036887527E0,4.295499921E-1,-1.230350018E0
9.137820370E0,1.036887527E0,4.295499921E-1,-1.230350018E0
9.157820370E0,1.036887527E0,4.295499921E-1,-1.230350018E0
9.177820370E0,1.036887527E0,4.295499921E-1,-1.230350018E0
9.197820370E0,1.036887527E0,4.295499921E-1,-1.230350018E0
9.217820370E0,5.494499803E-1,6.737499833E-1,-1.381874979E-1
9.237820370E0,5.494499803E-1,6.737499833E-1,-1.381874979E-1
9.257820370E0,5.494499803E-1,6.737499833E-1,-1.381874979E-1
9.277820370E0,5.494499803E-1,6.737499833E-1,-1.381874979E-1
9.297820370E0,5.494499803E-1,6.737499833E-1,-1.381874979E-1
9.317820370E0,-1.557049990E0,1.181262493E0,-1.161874980E-1
9.337820370E0,-1.557049990E0,1.181262493E0,-1.161874980E-1
9.357820370E0,-1.291537523E0,2.431000024E-1,9.794124961E-1
9.377820370E0,-1.291537523E0,2.431000024E-1,9.794124961E-1
9.397820370E0,-1.291537523E0,2.431000024E-1,9.794124961E-1
9.417820370E0,-1.291537523E0,2.431000024E-1,9.794124961E-1
9.437820370E0,-1.291537523E0,2.431000024E-1,9.794124961E-1
9.457820370E0,-8.975999951E-1,4.441249967E-1,-1.700875014E-1
9.477820370E0,-8.975999951E-1,4.441249967E-1,-1.700875014E-1
9.497820370E0,-9.684125185E-1,7.239375114E-1,-3.804624975E-1
9.517820370E0,-9.684125185E-1,7.239375114E-1,-3.804624975E-1
9.537820370E0,-9.684125185E-1,7.239375114E-1,-3.804624975E-1
9.557820370E0,-6.597250104E-1,5.788750052E-1,-2.340250015E-1
9.577820370E0,-6.597250104E-1,5.788750052E-1,-2.340250015E-1
9.597820370E0,-6.597250104E-1,5.788750052E-1,-2.340250015E-1
9.617820370E0,-6.597250104E-1,5.788750052E-1,-2.340250015E-1
9.637820370E0,-6.597250104E-1,5.788750052E-1,-2.340250015E-1
9.657820370E0,-6.597250104E-1,5.788750052E-1,-2.340250015E-1
9.677820370E0,-6.597250104E-1,5.788750052E-1,-2.340250015E-1
9.697820370E0,-6.597250104E-1,5.788750052E-1,-2.340250015E-1
9.717820370E0,-6.597250104E-1,5.788750052E-1,-2.340250015E-1
9.737820370E0,-6.597250104E-1,5.788750052E-1,-2.340250015E-1
9.757820370E0,-6.597250104E-1,5.788750052E-1,-2.340250015E-1
9.777820370E0,-6.597250104E-1,5.788750052E-1,-2.340250015E-1
9.797820370E0,1.353412509E0,-6.903874874E-1,-2.987875044E-1
9.817820370E0,1.353412509E0,-6.903874874E-1,-2.987875044E-1
9.837820370E0,4.284499884E-1,3.313750029E-2,-7.548750043E-1
9.857820370E0,4.284499884E-1,3.313750029E-2,-7.548750043E-1
9.877820370E0,4.284499884E-1,3.313750029E-2,-7.548750043E-1
9.897820370E0,4.827624857E-1,1.295250058E-1,-1.054212451E0
9.917820370E0,4.827624857E-1,1.295250058E-1,-1.054212451E0
9.937820370E0,4.827624857E-1,1.295250058E-1,-1.054212451E0
9.957820370E0,4.827624857E-1,1.295250058E-1,-1.054212451E0
9.977820370E0,4.827624857E-1,1.295250058E-1,-1.054212451E0
9.997820370E0,4.827624857E-1,1.295250058E-1,-1.054212451E0
1.001782037E1,4.827624857E-1,1.295250058E-1,-1.054212451E0
1.003782037E1,-1.029875040E0,-3.888500035E-1,6.155874729E-1
1.005782037E1,-1.029875040E0,-3.888500035E-1,6.155874729E-1
1.007782037E1,-1.029875040E0,-3.888500035E-1,6.155874729E-1
1.009782037E1,-1.029875040E0,-3.888500035E-1,6.155874729E-1
1.011782037E1,-1.029875040E0,-3.888500035E-1,6.155874729E-1
1.013782037E1,-4.092000127E-1,-5.185124874E-1,3.166624904E-1
1.015782037E1,-4.092000127E-1,-5.185124874E-1,3.166624904E-1
1.017782037E1,-1.572862506E0,-1.601874977E-1,-1.231449962E0
1.019782037E1,-1.572862506E0,-1.601874977E-1,-1.231449962E0
1.021782037E1,1.768250018E-1,-3.170749843E-1,-2.410375029E-1
1.023782037E1,1.768250018E-1,-3.170749843E-1,-2.410375029E-1
1.025782037E1,1.768250018E-1,-3.170749843E-1,-2.410375029E-1
1.027782037E1,-9.510874748E-1,4.553999901E-1,-1.283562541E0
1.029782037E1,-9.510874748E-1,4.553999901E-1,-1.283562541E0
1.031782037E1,-9.510874748E-1,4.553999901E-1,-1.283562541E0
1.033782037E1,-9.510874748E-1,4.553999901E-1,-1.283562541E0
1.035782037E1,-9.510874748E-1,4.553999901E-1,-1.283562541E0
1.037782037E1,4.646124840E-1,5.179625154E-1,7.919999957E-2
1.039782037E1,4.646124840E-1,5.179625154E-1,7.919999957E-2
1.041782037E1,4.646124840E-1,5.179625154E-1,7.919999957E-2
1.043782037E1,4.646124840E-1,5.179625154E-1,7.919999957E-2
1.045782037E1,4.646124840E-1,5.179625154E-1,7.919999957E-2
1.047782037E1,4.646124840E-1,5.179625154E-1,7.919999957E-2
1.049782037E1,4.646124840E-1,5.179625154E-1,7.919999957E-2
1.051782037E1,8.728500009E-1,-6.799374819E-1,1.104400039E0
1.053782037E1,8.728500009E-1,-6.799374819E-1,1.104400039E0
1.055782037E1,8.728500009E-1,-6.799374819E-1,1.104400039E0
1.057782037E1,8.728500009E-1,-6.799374819E-1,1.104400039E0
1.059782037E1,8.728500009E-1,-6.799374819E-1,1.104400039E0
1.061782037E1,-1.193500012E-1,-2.079000026E-1,-4.602124989E-1
1.063782037E1,-1.193500012E-1,-2.079000026E-1,-4.602124989E-1
1.065782037E1,-1.193500012E-1,-2.079000026E-1,-4.602124989E-1
1.067782037E1,-1.193500012E-1,-2.079000026E-1,-4.602124989E-1
1.069782037E1,-1.193500012E-1,-2.079000026E-1,-4.602124989E-1
1.071782037E1,3.539249897E-1,-6.613749862E-1,8.855000138E-2
1.073782037E1,3.539249897E-1,-6.613749862E-1,8.855000138E-2
1.075782037E1,5.825874805E-1,-1.032762527E0,7.416750193E-1
1.077782037E1,5.825874805E-1,-1.032762527E0,7.416750193E-1
1.079782037E1,5.825874805E-1,-1.032762527E0,7.416750193E-1
1.081782037E1,5.825874805E-1,-1.032762527E0,7.416750193E-1
1.083782037E1,5.825874805E-1,-1.032762527E0,7.416750193E-1
1.085782037E1,-2.479124963E-1,-4.632374942E-1,8.339374661E-1
1.087782037E1,-2.479124963E-1,-4.632374942E-1,8.339374661E-1
1.089782037E1,-7.459374666E-1,-1.754499972E-1,4.626874924E-1
1.091782037E1,-7.459374666E-1,-1.754499972E-1,4.626874924E-1
1.093782037E1,-7.459374666E-1,-1.754499972E-1,4.626874924E-1
1.095782037E1,-3.390749991E-1,-2.858625054E-1,-3.878875077E-1
1.097782037E1,-3.390749991E-1,-2.858625054E-1,-3.878875077E-1
1.099782037E1,6.458374858E-1,-1.004024982E0,-1.075250030E0
1.101782037E1,6.458374858E-1,-1.004024982E0,-1.075250030E0
1.103782037E1,6.458374858E-1,-1.004024982E0,-1.075250030E0
1.105782037E1,6.458374858E-1,-1.004024982E0,-1.075250030E0
1.107782037E1,6.458374858E-1,-1.004024982E0,-1.075250030E0
1.109782037E1,6.095374823E-1,-1.334162474E0,-1.798499972E-1
1.111782037E1,6.095374823E-1,-1.334162474E0,-1.798499972E-1
1.113782037E1,6.095374823E-1,-1.334162474E0,-1.798499972E-1
1.115782037E1,6.095374823E-1,-1.334162474E0,-1.798499972E-1
1.117782037E1,6.095374823E-1,-1.334162474E0,-1.798499972E-1
1.119782037E1,1.134512544E0,-8.457624912E-1,5.068249702E-1
1.121782037E1,1.134512544E0,-8.457624912E-1,5.068249702E-1
1.123782037E1,1.134512544E0,-8.457624912E-1,5.068249702E-1
1.125782037E1,1.134512544E0,-8.457624912E-1,5.068249702E-1
1.127782037E1,1.134512544E0,-8.457624912E-1,5.068249702E-1
1.129782037E1,1.134512544E0,-8.457624912E-1,5.068249702E-1
1.131782037E1,1.134512544E0,-8.457624912E-1,5.068249702E-1
1.133782037E1,1.052012444E0,-3.973750025E-2,1.091750026E0
1.135782037E1,1.052012444E0,-3.973750025E-2,1.091750026E0
1.137782037E1,1.052012444E0,-3.973750025E-2,1.091750026E0
1.139782037E1,1.052012444E0,-3.973750025E-2,1.091750026E0
1.141782037E1,1.052012444E0,-3.973750025E-2,1.091750026E0
1.143782037E1,-1.663062453E0,-4.005374908E-1,-1.753674984E0
1.145782037E1,-1.663062453E0,-4.005374908E-1,-1.753674984E0
1.147782037E1,-4.984374940E-1,-1.019974947E0,-1.701424956E0
1.149782037E1,-4.984374940E-1,-1.019974947E0,-1.701424956E0
1.151782037E1,-4.984374940E-1,-1.019974947E0,-1.701424956E0
1.153782037E1,-4.984374940E-1,-1.019974947E0,-1.701424956E0
1.155782037E1,-4.984374940E-1,-1.019974947E0,-1.701424956E0
1.157782037E1,-4.984374940E-1,-1.019974947E0,-1.701424956E0
1.159782037E1,-4.984374940E-1,-1.019974947E0,-1.701424956E0
1.161782037E1,-4.984374940E-1,-1.019974947E0,-1.701424956E0
1.163782037E1,-4.984374940E-1,-1.019974947E0,-1.701424956E0
1.165782037E1,-4.984374940E-1,-1.019974947E0,-1.701424956E0
1.167782037E1,2.046412468E0,-1.417899966E0,1.633774996E0
1.169782037E1,2.046412468E0,-1.417899966E0,1.633774996E0
1.171782037E1,1.799324989E0,-9.833999872E-1,2.046824932E0
1.173782037E1,1.799324989E0,-9.833999872E-1,2.046824932E0
1.175782037E1,1.799324989E0,-9.833999872E-1,2.046824932E0
1.177782037E1,1.198174953E0,-1.333750010E0,1.115399957E0
1.179782037E1,1.198174953E0,-1.333750010E0,1.115399957E0
1.181782037E1,6.869499683E-1,-1.845662475E0,4.420624971E-1
1.183782037E1,6.869499683E-1,-1.845662475E0,4.420624971E-1
1.185782037E1,6.869499683E-1,-1.845662475E0,4.420624971E-1
1.187782037E1,6.869499683E-1,-1.845662475E0,4.420624971E-1
1.189782037E1,6.869499683E-1,-1.845662475E0,4.420624971E-1
1.191782037E1,2.329249978E-1,-1.943837523E0,2.947999835E-1
1.193782037E1,2.329249978E-1,-1.943837523E0,2.947999835E-1
1.195782037E1,2.329249978E-1,-1.943837523E0,2.947999835E-1
1.197782037E1,2.329249978E-1,-1.943837523E0,2.947999835E-1
1.199782037E1,2.329249978E-1,-1.943837523E0,2.947999835E-1
1.201782037E1,-3.176249936E-2,-1.641612530E0,3.951750100E-1
1.203782037E1,-3.176249936E-2,-1.641612530E0,3.951750100E-1
1.205782037E1,1.773750037E-2,-1.860100031E0,1.457499992E-2
1.207782037E1,1.773750037E-2,-1.860100031E0,1.457499992E-2
1.209782037E1,1.773750037E-2,-1.860100031E0,1.457499992E-2
1.211782037E1,1.773750037E-2,-1.860100031E0,1.457499992E-2
1.213782037E1,1.773750037E-2,-1.860100031E0,1.457499992E-2
1.215782037E1,2.660624981E-1,-3.051949978E0,-9.895874858E-1
1.217782037E1,2.660624981E-1,-3.051949978E0,-9.895874858E-1
1.219782037E1,2.660624981E-1,-3.051949978E0,-9.895874858E-1
1.221782037E1,2.660624981E-1,-3.051949978E0,-9.895874858E-1
1.223782037E1,2.660624981E-1,-3.051949978E0,-9.895874858E-1
1.225782037E1,9.050250053E-1,-2.131112576E0,-8.657000065E-1
1.227782037E1,9.050250053E-1,-2.131112576E0,-8.657000065E-1
1.229782037E1,9.050250053E-1,-2.131112576E0,-8.657000065E-1
1.231782037E1,9.050250053E-1,-2.131112576E0,-8.657000065E-1
1.233782037E1,9.050250053E-1,-2.131112576E0,-8.657000065E-1
1.235782037E1,9.050250053E-1,-2.131112576E0,-8.657000065E-1
1.237782037E1,9.050250053E-1,-2.131112576E0,-8.657000065E-1
1.239782037E1,5.072374940E-1,1.354787469E0,1.028224945E0
1.241782037E1,5.072374940E-1,1.354787469E0,1.028224945E0
1.243782037E1,1.608749926E-1,1.375137448E0,8.200500011E-1
1.245782037E1,1.608749926E-1,1.375137448E0,8.200500011E-1
1.247782037E1,1.608749926E-1,1.375137448E0,8.200500011E-1
1.249782037E1,-3.451250121E-2,6.106374860E-1,-3.569499850E-1
1.251782037E1,-3.451250121E-2,6.106374860E-1,-3.569499850E-1
1.253782037E1,-3.451250121E-2,6.106374860E-1,-3.569499850E-1
1.255782037E1,-3.451250121E-2,6.106374860E-1,-3.569499850E-1
1.257782037E1,-3.451250121E-2,6.106374860E-1,-3.569499850E-1
1.259782037E1,-3.451250121E-2,6.106374860E-1,-3.569499850E-1
1.261782037E1,-3.451250121E-2,6.106374860E-1,-3.569499850E-1
1.263782037E1,-3.532375097E-1,-5.766749978E-1,-1.145237446E0
1.265782037E1,-3.532375097E-1,-5.766749978E-1,-1.145237446E0
1.267782037E1,-3.532375097E-1,-5.766749978E-1,-1.145237446E0
1.269782037E1,-3.532375097E-1,-5.766749978E-1,-1.145237446E0
1.271782037E1,-3.532375097E-1,-5.766749978E-1,-1.145237446E0
1.273782037E1,-6.473500133E-1,-1.223062515E0,-4.688749909E-1
1.275782037E1,-6.473500133E-1,-1.223062515E0,-4.688749909E-1
1.277782037E1,1.153762460E0,-1.846624970E0,-1.790799975E0
1.279782037E1,1.153762460E0,-1.846624970E0,-1.790799975E0
1.281782037E1,1.153762460E0,-1.846624970E0,-1.790799975E0
1.283782037E1,5.872625113E-1,-1.458462477E0,-2.917749882E-1
1.285782037E1,5.872625113E-1,-1.458462477E0,-2.917749882E-1
1.287782037E1,6.755374670E-1,-1.045687437E0,2.778874934E-1
1.289782037E1,6.755374670E-1,-1.045687437E0,2.778874934E-1
1.291782037E1,4.534749985E-1,-6.419875026E-1,9.784500003E-1
1.293782037E1,4.534749985E-1,-6.419875026E-1,9.784500003E-1
1.295782037E1,4.534749985E-1,-6.419875026E-1,9.784500003E-1
1.297782037E1,4.806999862E-1,-4.431625009E-1,1.080199957E0
1.299782037E1,4.806999862E-1,-4.431625009E-1,1.080199957E0
1.301782037E1,4.806999862E-1,-4.431625009E-1,1.080199957E0
1.303782037E1,4.806999862E-1,-4.431625009E-1,1.080199957E0
1.305782037E1,4.806999862E-1,-4.431625009E-1,1.080199957E0
1.307782037E1,3.540624976E-1,-1.092987537E0,7.469000220E-1
1.309782037E1,3.540624976E-1,-1.092987537E0,7.469000220E-1
1.311782037E1,3.540624976E-1,-1.092987537E0,7.469000220E-1
1.313782037E1,3.540624976E-1,-1.092987537E0,7.469000220E-1
1.315782037E1,3.540624976E-1,-1.092987537E0,7.469000220E-1
1.317782037E1,3.540624976E-1,-1.092987537E0,7.469000220E-1
1.319782037E1,3.540624976E-1,-1.092987537E0,7.469000220E-1
1.321782037E1,8.599249721E-1,-2.101550102E0,-1.743499935E-1
1.323782037E1,8.599249721E-1,-2.101550102E0,-1.743499935E-1
1.325782037E1,9.495750070E-1,-1.568737507E0,2.473624945E-1
1.327782037E1,9.495750070E-1,-1.568737507E0,2.473624945E-1
1.329782037E1,9.495750070E-1,-1.568737507E0,2.473624945E-1
1.331782037E1,6.711375117E-1,-1.292500019E0,6.950625181E-1
1.333782037E1,6.711375117E-1,-1.292500019E0,6.950625181E-1
1.335782037E1,6.711375117E-1,-1.292500019E0,6.950625181E-1
1.337782037E1,6.711375117E-1,-1.292500019E0,6.950625181E-1
1.339782037E1,6.711375117E-1,-1.292500019E0,6.950625181E-1
1.341782037E1,2.017125040E-1,-9.538375139E-1,8.205999732E-1
1.343782037E1,2.017125040E-1,-9.538375139E-1,8.205999732E-1
1.345782037E1,2.668874860E-1,-7.319124937E-1,5.464249849E-1
1.347782037E1,2.668874860E-1,-7.319124937E-1,5.464249849E-1
1.349782037E1,2.668874860E-1,-7.319124937E-1,5.464249849E-1
1.351782037E1,2.668874860E-1,-7.319124937E-1,5.464249849E-1
1.353782037E1,2.668874860E-1,-7.319124937E-1,5.464249849E-1
1.355782037E1,-3.299999982E-2,-9.748749733E-1,-1.093124971E-1
1.357782037E1,-3.299999982E-2,-9.748749733E-1,-1.093124971E-1
1.359782037E1,-3.299999982E-2,-9.748749733E-1,-1.093124971E-1
1.361782037E1,-3.299999982E-2,-9.748749733E-1,-1.093124971E-1
1.363782037E1,-3.299999982E-2,-9.748749733E-1,-1.093124971E-1
1.365782037E1,6.456999779E-1,7.676625252E-1,-3.079999983E-1
1.367782037E1,6.456999779E-1,7.676625252E-1,-3.079999983E-1
1.369782037E1,6.456999779E-1,7.676625252E-1,-3.079999983E-1
1.371782037E1,6.456999779E-1,7.676625252E-1,-3.079999983E-1
1.373782037E1,6.456999779E-1,7.676625252E-1,-3.079999983E-1
1.375782037E1,6.456999779E-1,7.676625252E-1,-3.079999983E-1
1.377782037E1,6.456999779E-1,7.676625252E-1,-3.079999983E-1
1.379782037E1,1.751749963E-1,2.206049919E0,-3.723500073E-1
1.381782037E1,1.751749963E-1,2.206049919E0,-3.723500073E-1
1.383782037E1,1.751749963E-1,2.206049919E0,-3.723500073E-1
1.385782037E1,1.751749963E-1,2.206049919E0,-3.723500073E-1
1.387782037E1,1.751749963E-1,2.206049919E0,-3.723500073E-1
1.389782037E1,-1.045412540E0,2.528349876E0,1.911250055E-1
1.391782037E1,-1.045412540E0,2.528349876E0,1.911250055E-1
1.393782037E1,-4.314749837E-1,2.162600040E0,-3.630000055E-1
1.395782037E1,-4.314749837E-1,2.162600040E0,-3.630000055E-1
1.397782037E1,-4.314749837E-1,2.162600040E0,-3.630000055E-1
1.399782037E1,-4.314749837E-1,2.162600040E0,-3.630000055E-1
1.401782037E1,-4.314749837E-1,2.162600040E0,-3.630000055E-1
1.403782037E1,-6.226000190E-1,-2.028125048E0,-1.547012448E0
1.405782037E1,-6.226000190E-1,-2.028125048E0,-1.547012448E0
1.407782037E1,-6.226000190E-1,-2.028125048E0,-1.547012448E0
1.409782037E1,-6.226000190E-1,-2.028125048E0,-1.547012448E0
1.411782037E1,-6.226000190E-1,-2.028125048E0,-1.547012448E0
1.413782037E1,4.575999975E-1,-2.268337488E0,-1.168475032E0
1.415782037E1,4.575999975E-1,-2.268337488E0,-1.168475032E0
1.417782037E1,4.575999975E-1,-2.268337488E0,-1.168475032E0
1.419782037E1,4.575999975E-1,-2.268337488E0,-1.168475032E0
1.421782037E1,4.575999975E-1,-2.268337488E0,-1.168475032E0
1.423782037E1,7.654625177E-1,1.616999954E-1,6.979500055E-1
1.425782037E1,7.654625177E-1,1.616999954E-1,6.979500055E-1
1.427782037E1,1.199000031E-1,-5.774999969E-3,1.485550046E0
1.429782037E1,1.199000031E-1,-5.774999969E-3,1.485550046E0
1.431782037E1,4.147000015E-1,-3.598375022E-1,9.708874822E-1
1.431782037E1,4.147000015E-1,-3.598375022E-1,9.708874822E-1
1.435782037E1,4.147000015E-1,-3.598375022E-1,9.708874822E-1
1.437782037E1,3.966875076E-1,-9.649749994E-1,5.680124760E-1
1.439782037E1,3.966875076E-1,-9.649749994E-1,5.680124760E-1
1.441782037E1,3.966875076E-1,-9.649749994E-1,5.680124760E-1
1.443782037E1,3.966875076E-1,-9.649749994E-1,5.680124760E-1
1.445782037E1,3.966875076E-1,-9.649749994E-1,5.680124760E-1
1.447782037E1,2.022625059E-1,-2.213200092E0,-5.230500102E-1
1.449782037E1,2.022625059E-1,-2.213200092E0,-5.230500102E-1
1.451782037E1,8.523625135E-1,-9.227625132E-1,-2.222000062E-1
1.453782037E1,8.523625135E-1,-9.227625132E-1,-2.222000062E-1
1.455782037E1,8.523625135E-1,-9.227625132E-1,-2.222000062E-1
1.457782037E1,8.523625135E-1,-9.227625132E-1,-2.222000062E-1
1.459782037E1,8.523625135E-1,-9.227625132E-1,-2.222000062E-1
1.461782037E1,5.950999856E-1,-3.206500113E-1,7.434625030E-1
1.463782037E1,5.950999856E-1,-3.206500113E-1,7.434625030E-1
1.465782037E1,1.531749964E-1,-4.082374871E-1,1.135749936E0
1.467782037E1,1.531749964E-1,-4.082374871E-1,1.135749936E0
1.469782037E1,1.531749964E-1,-4.082374871E-1,1.135749936E0
1.471782037E1,-5.578374863E-1,-1.052012444E0,1.159950018E0
1.473782037E1,-5.578374863E-1,-1.052012444E0,1.159950018E0
1.475782037E1,-5.578374863E-1,-1.052012444E0,1.159950018E0
1.477782037E1,-5.578374863E-1,-1.052012444E0,1.159950018E0
1.479782037E1,-5.578374863E-1,-1.052012444E0,1.159950018E0
1.481782037E1,-5.578374863E-1,-1.052012444E0,1.159950018E0
1.483782037E1,-5.578374863E-1,-1.052012444E0,1.159950018E0
1.485782037E1,-6.487249732E-1,-3.711124957E-1,2.337499987E-3
1.487782037E1,-6.487249732E-1,-3.711124957E-1,2.337499987E-3
1.489782037E1,-6.487249732E-1,-3.711124957E-1,2.337499987E-3
1.491782037E1,-6.487249732E-1,-3.711124957E-1,2.337499987E-3
1.493782037E1,-6.487249732E-1,-3.711124957E-1,2.337499987E-3
1.495782037E1,2.355374992E-1,1.753262520E0,-1.217837453E0
1.497782037E1,2.355374992E-1,1.753262520E0,-1.217837453E0
1.499782037E1,1.806750000E-1,2.381637573E0,-1.050225019E0
1.501782037E1,1.806750000E-1,2.381637573E0,-1.050225019E0
1.503782037E1,1.806750000E-1,2.381637573E0,-1.050225019E0
1.505782037E1,-3.059374988E-1,2.282637596E0,-9.314249754E-1
1.507782037E1,-3.059374988E-1,2.282637596E0,-9.314249754E-1
1.509782037E1,-5.032500029E-1,2.175937414E0,-8.449375033E-1
1.511782037E1,-5.032500029E-1,2.175937414E0,-8.449375033E-1
1.513782037E1,-5.032500029E-1,2.175937414E0,-8.449375033E-1
1.515782037E1,-5.032500029E-1,2.175937414E0,-8.449375033E-1
1.517782037E1,-5.032500029E-1,2.175937414E0,-8.449375033E-1
1.519782037E1,-9.774875045E-1,1.246024966E0,-4.131875038E-1
1.521782037E1,-9.774875045E-1,1.246024966E0,-4.131875038E-1
1.523782037E1,-9.774875045E-1,1.246024966E0,-4.131875038E-1
1.523782037E1,-1.158437490E0,-7.159624696E-1,-7.053750157E-1
1.527782037E1,-1.158437490E0,-7.159624696E-1,-7.053750157E-1
1.529782037E1,9.396749735E-1,1.140149951E0,-1.422987461E0
1.531782037E1,9.396749735E-1,1.140149951E0,-1.422987461E0
1.533782037E1,4.003999829E-1,4.193750024E-1,-5.648499727E-1
1.535782037E1,4.003999829E-1,4.193750024E-1,-5.648499727E-1
1.537782037E1,4.003999829E-1,4.193750024E-1,-5.648499727E-1
1.539782037E1,4.003999829E-1,4.193750024E-1,-5.648499727E-1
1.541782037E1,4.003999829E-1,4.193750024E-1,-5.648499727E-1
1.543782037E1,4.218499959E-1,3.599750102E-1,3.645125031E-1
1.545782037E1,4.218499959E-1,3.599750102E-1,3.645125031E-1
1.547782037E1,4.218499959E-1,3.599750102E-1,3.645125031E-1
1.549782037E1,4.218499959E-1,3.599750102E-1,3.645125031E-1
1.551782037E1,4.218499959E-1,3.599750102E-1,3.645125031E-1
1.553782037E1,-8.461750150E-1,-5.113624930E-1,1.563099980E0
1.555782037E1,-8.461750150E-1,-5.113624930E-1,1.563099980E0
1.557782037E1,-8.461750150E-1,-5.113624930E-1,1.563099980E0
1.559782037E1,-8.461750150E-1,-5.113624930E-1,1.563099980E0
1.561782037E1,-8.461750150E-1,-5.113624930E-1,1.563099980E0
1.563782037E1,-8.461750150E-1,-5.113624930E-1,1.563099980E0
1.565782037E1,-8.461750150E-1,-5.113624930E-1,1.563099980E0
1.567782037E1,3.196874857E-1,-1.043762445E0,3.937999904E-1
1.569782037E1,3.196874857E-1,-1.043762445E0,3.937999904E-1
1.571782037E1,1.992374957E-1,-1.997187495E0,-3.289000094E-1
1.573782037E1,1.992374957E-1,-1.997187495E0,-3.289000094E-1
1.575782037E1,1.992374957E-1,-1.997187495E0,-3.289000094E-1
1.577782037E1,5.941374898E-1,-1.560762525E0,-3.851374984E-1
1.579782037E1,5.941374898E-1,-1.560762525E0,-3.851374984E-1
1.581782037E1,5.941374898E-1,-1.560762525E0,-3.851374984E-1
1.583782037E1,5.941374898E-1,-1.560762525E0,-3.851374984E-1
1.585782037E1,5.941374898E-1,-1.560762525E0,-3.851374984E-1
1.587782037E1,5.941374898E-1,-1.560762525E0,-3.851374984E-1
1.589782037E1,5.941374898E-1,-1.560762525E0,-3.851374984E-1
1.591782037E1,3.222999871E-1,-5.700749755E-1,1.115537524E0
1.593782037E1,3.222999871E-1,-5.700749755E-1,1.115537524E0
1.595782037E1,3.222999871E-1,-5.700749755E-1,1.115537524E0
1.597782037E1,3.222999871E-1,-5.700749755E-1,1.115537524E0
1.599782037E1,3.222999871E-1,-5.700749755E-1,1.115537524E0
1.601782037E1,-1.816374958E-1,-4.600749910E-1,1.145237446E0
1.603782037E1,-1.816374958E-1,-4.600749910E-1,1.145237446E0
1.605782037E1,-6.285125017E-1,-8.536000252E-1,8.058875203E-1
1.607782037E1,-6.285125017E-1,-8.536000252E-1,8.058875203E-1
1.609782037E1,-6.285125017E-1,-8.536000252E-1,8.058875203E-1
1.611782037E1,-6.223250031E-1,-7.664250135E-1,6.324999779E-2
1.613782037E1,-6.223250031E-1,-7.664250135E-1,6.324999779E-2
1.615782037E1,-4.768500030E-1,-3.385249972E-1,-5.652624965E-1
1.617782037E1,-4.768500030E-1,-3.385249972E-1,-5.652624965E-1
1.619782037E1,-4.768500030E-1,-3.385249972E-1,-5.652624965E-1
1.621782037E1,-4.768500030E-1,-3.385249972E-1,-5.652624965E-1
1.623782037E1,-4.768500030E-1,-3.385249972E-1,-5.652624965E-1
1.625782037E1,-6.459749937E-1,6.763625145E-1,4.628250003E-1
1.627782037E1,-6.459749937E-1,6.763625145E-1,4.628250003E-1
1.629782037E1,-6.459749937E-1,6.763625145E-1,4.628250003E-1
1.631782037E1,-6.459749937E-1,6.763625145E-1,4.628250003E-1
1.633782037E1,-6.459749937E-1,6.763625145E-1,4.628250003E-1
1.635782037E1,-4.247374833E-1,2.059750080E0,1.391362548E0
1.637782037E1,-4.247374833E-1,2.059750080E0,1.391362548E0
1.639782037E1,-3.044250011E-1,2.799774885E0,1.692487478E0
1.641782037E1,-3.044250011E-1,2.799774885E0,1.692487478E0
1.643782037E1,-3.044250011E-1,2.799774885E0,1.692487478E0
1.645782037E1,-3.044250011E-1,2.799774885E0,1.692487478E0
1.647782037E1,-3.044250011E-1,2.799774885E0,1.692487478E0
1.649782037E1,-3.808749914E-1,1.224437475E0,-6.333249807E-1
1.651782037E1,-3.808749914E-1,1.224437475E0,-6.333249807E-1
1.653782037E1,-3.808749914E-1,1.224437475E0,-6.333249807E-1
1.655782037E1,-3.808749914E-1,1.224437475E0,-6.333249807E-1
1.657782037E1,-3.808749914E-1,1.224437475E0,-6.333249807E-1
1.659782037E1,-3.808749914E-1,1.224437475E0,-6.333249807E-1
1.661782037E1,-3.808749914E-1,1.224437475E0,-6.333249807E-1
1.663782037E1,3.392125070E-1,1.615487456E0,-5.886374712E-1
1.665782037E1,3.392125070E-1,1.615487456E0,-5.886374712E-1
1.667782037E1,3.392125070E-1,1.615487456E0,-5.886374712E-1
1.669782037E1,3.392125070E-1,1.615487456E0,-5.886374712E-1
1.671782037E1,3.392125070E-1,1.615487456E0,-5.886374712E-1
1.673782037E1,6.683874726E-1,7.215999961E-1,-1.468500018E0
1.675782037E1,6.683874726E-1,7.215999961E-1,-1.468500018E0
1.677782037E1,6.683874726E-1,7.215999961E-1,-1.468500018E0
1.679782037E1,6.683874726E-1,7.215999961E-1,-1.468500018E0
1.681782037E1,6.683874726E-1,7.215999961E-1,-1.468500018E0
1.683782037E1,1.929125041E-1,4.948624969E-1,-1.056687474E0
1.685782037E1,1.929125041E-1,4.948624969E-1,-1.056687474E0
1.687782037E1,-4.812499881E-2,6.104999781E-1,-5.200250149E-1
1.689782037E1,-4.812499881E-2,6.104999781E-1,-5.200250149E-1
1.691782037E1,-4.812499881E-2,6.104999781E-1,-5.200250149E-1
1.693782037E1,-5.677375197E-1,1.580562472E0,5.418875217E-1
1.695782037E1,-5.677375197E-1,1.580562472E0,5.418875217E-1
1.697782037E1,-5.876749754E-1,2.469774961E0,1.127362490E0
1.699782037E1,-5.876749754E-1,2.469774961E0,1.127362490E0
1.701782037E1,-5.876749754E-1,2.469774961E0,1.127362490E0
1.703782037E1,-5.876749754E-1,2.469774961E0,1.127362490E0
1.705782037E1,-5.876749754E-1,2.469774961E0,1.127362490E0
1.707782037E1,-9.638749808E-2,2.547324896E0,1.120625019E0
1.709782037E1,-9.638749808E-2,2.547324896E0,1.120625019E0
1.711782037E1,-1.359875053E-1,2.266137600E0,7.715125084E-1
1.713782037E1,-1.359875053E-1,2.266137600E0,7.715125084E-1
1.715782037E1,-1.359875053E-1,2.266137600E0,7.715125084E-1
1.717782037E1,1.043625027E-1,2.399512529E0,6.364874840E-1
1.719782037E1,1.043625027E-1,2.399512529E0,6.364874840E-1
1.721782037E1,4.686000049E-1,2.707237482E0,6.553249955E-1
1.723782037E1,4.686000049E-1,2.707237482E0,6.553249955E-1
1.725782037E1,4.686000049E-1,2.707237482E0,6.553249955E-1
1.727782037E1,4.686000049E-1,2.707237482E0,6.553249955E-1
1.729782037E1,4.686000049E-1,2.707237482E0,6.553249955E-1
1.731782037E1,1.349837542E0,2.244137526E0,-3.470500112E-1
1.733782037E1,1.349837542E0,2.244137526E0,-3.470500112E-1
1.735782037E1,1.349837542E0,2.244137526E0,-3.470500112E-1
1.737782037E1,1.349837542E0,2.244137526E0,-3.470500112E-1
1.739782037E1,1.349837542E0,2.244137526E0,-3.470500112E-1
1.741782037E1,6.737499833E-1,-2.505249977E-1,-2.746837378E0
1.743782037E1,6.737499833E-1,-2.505249977E-1,-2.746837378E0
1.745782037E1,-1.346125007E0,-6.638500094E-1,-3.533612490E0
1.747782037E1,-1.346125007E0,-6.638500094E-1,-3.533612490E0
1.749782037E1,-1.346125007E0,-6.638500094E-1,-3.533612490E0
1.751782037E1,-1.346125007E0,-6.638500094E-1,-3.533612490E0
1.753782037E1,-1.346125007E0,-6.638500094E-1,-3.533612490E0
1.755782037E1,-7.504337311E0,7.755412579E0,-2.022074938E0
1.757782037E1,-7.504337311E0,7.755412579E0,-2.022074938E0
1.759782037E1,-7.504337311E0,7.755412579E0,-2.022074938E0
1.761782037E1,-7.504337311E0,7.755412579E0,-2.022074938E0
1.763782037E1,-7.504337311E0,7.755412579E0,-2.022074938E0
1.765782037E1,-3.162637472E0,3.199349880E0,1.889799953E0
1.767782037E1,-3.162637472E0,3.199349880E0,1.889799953E0
1.769782037E1,-3.162637472E0,3.199349880E0,1.889799953E0
1.771782037E1,-3.162637472E0,3.199349880E0,1.889799953E0
1.773782037E1,-3.162637472E0,3.199349880E0,1.889799953E0
1.775782037E1,2.436500043E-1,6.941000223E-1,1.796437502E0
1.777782037E1,2.436500043E-1,6.941000223E-1,1.796437502E0
1.779782037E1,7.942000031E-1,3.874749839E-1,6.730625033E-1
1.781782037E1,7.942000031E-1,3.874749839E-1,6.730625033E-1
1.783782037E1,7.942000031E-1,3.874749839E-1,6.730625033E-1
1.785782037E1,7.942000031E-1,3.874749839E-1,6.730625033E-1
1.787782037E1,7.942000031E-1,3.874749839E-1,6.730625033E-1
1.789782037E1,-1.150875017E-1,1.363862514E0,-1.298962474E0
1.791782037E1,-1.150875017E-1,1.363862514E0,-1.298962474E0
1.793782037E1,-7.229750156E-1,2.069649935E0,-2.041737556E0
1.795782037E1,-7.229750156E-1,2.069649935E0,-2.041737556E0
1.797782037E1,-7.229750156E-1,2.069649935E0,-2.041737556E0
1.799782037E1,-1.299787521E0,2.404187441E0,-2.130424976E0
1.801782037E1,-1.299787521E0,2.404187441E0,-2.130424976E0
1.803782037E1,-1.200787544E0,1.687399983E0,-1.314362526E0
1.805782037E1,-1.200787544E0,1.687399983E0,-1.314362526E0
1.807782037E1,-1.200787544E0,1.687399983E0,-1.314362526E0
1.809782037E1,-1.200787544E0,1.687399983E0,-1.314362526E0
1.811782037E1,-1.200787544E0,1.687399983E0,-1.314362526E0
1.813782037E1,-4.003999829E-1,-2.585000098E-1,3.264249861E-1
1.815782037E1,-4.003999829E-1,-2.585000098E-1,3.264249861E-1
1.817782037E1,-4.003999829E-1,-2.585000098E-1,3.264249861E-1
1.819782037E1,-4.003999829E-1,-2.585000098E-1,3.264249861E-1
1.821782037E1,-4.003999829E-1,-2.585000098E-1,3.264249861E-1
1.823782037E1,1.456262469E0,-1.705274940E0,1.408137441E0
1.825782037E1,1.456262469E0,-1.705274940E0,1.408137441E0
1.827782037E1,1.264587522E0,-1.580425024E0,1.185387492E0
1.829782037E1,1.264587522E0,-1.580425024E0,1.185387492E0
1.831782037E1,1.264587522E0,-1.580425024E0,1.185387492E0
1.833782037E1,1.264587522E0,-1.580425024E0,1.185387492E0
1.835782037E1,1.264587522E0,-1.580425024E0,1.185387492E0
1.837782037E1,1.263487458E0,-1.433987498E0,1.076487541E0
1.839782037E1,1.263487458E0,-1.433987498E0,1.076487541E0
1.841782037E1,1.263487458E0,-1.433987498E0,1.076487541E0
1.843782037E1,1.263487458E0,-1.433987498E0,1.076487541E0
1.845782037E1,1.263487458E0,-1.433987498E0,1.076487541E0
1.847782037E1,-8.108375072E-1,3.995749950E-1,-6.472125053E-1
1.849782037E1,-8.108375072E-1,3.995749950E-1,-6.472125053E-1
1.851782037E1,-8.108375072E-1,3.995749950E-1,-6.472125053E-1
1.853782037E1,-8.108375072E-1,3.995749950E-1,-6.472125053E-1
1.855782037E1,-8.108375072E-1,3.995749950E-1,-6.472125053E-1
1.857782037E1,-2.060849905E0,2.798675060E0,-2.783550024E0
1.857782037E1,-2.060849905E0,2.798675060E0,-2.783550024E0
1.861782037E1,-1.285899997E0,2.263525009E0,-1.993199944E0
1.863782037E1,-1.285899997E0,2.263525009E0,-1.993199944E0
1.865782037E1,-1.285899997E0,2.263525009E0,-1.993199944E0
1.867782037E1,-1.285899997E0,2.263525009E0,-1.993199944E0
1.869782037E1,-1.285899997E0,2.263525009E0,-1.993199944E0
1.871782037E1,1.401812434E0,-5.172749758E-1,1.739374995E-1
1.873782037E1,1.401812434E0,-5.172749758E-1,1.739374995E-1
1.875782037E1,4.189625084E-1,-1.379950047E0,8.951249719E-1
1.877782037E1,4.189625084E-1,-1.379950047E0,8.951249719E-1
1.879782037E1,4.189625084E-1,-1.379950047E0,8.951249719E-1
1.881782037E1,2.155999988E-1,-1.521024942E0,9.774875045E-1
1.883782037E1,2.155999988E-1,-1.521024942E0,9.774875045E-1
1.885782037E1,9.735000134E-2,-1.432749987E0,9.480624795E-1
1.887782037E1,9.735000134E-2,-1.432749987E0,9.480624795E-1
1.889782037E1,9.735000134E-2,-1.432749987E0,9.480624795E-1
1.891782037E1,9.735000134E-2,-1.432749987E0,9.480624795E-1
1.893782037E1,9.735000134E-2,-1.432749987E0,9.480624795E-1
1.895782037E1,-1.181124970E-1,-9.080500007E-1,5.883625150E-1
1.897782037E1,-1.181124970E-1,-9.080500007E-1,5.883625150E-1
1.899782037E1,-1.181124970E-1,-9.080500007E-1,5.883625150E-1
1.901782037E1,-1.181124970E-1,-9.080500007E-1,5.883625150E-1
1.903782037E1,-1.181124970E-1,-9.080500007E-1,5.883625150E-1
1.905782037E1,3.092375100E-1,-9.729499817E-1,1.553200006E0
1.907782037E1,3.092375100E-1,-9.729499817E-1,1.553200006E0
1.909782037E1,3.955875039E-1,-6.424000263E-1,7.493749857E-1
1.911782037E1,3.955875039E-1,-6.424000263E-1,7.493749857E-1
1.913782037E1,3.955875039E-1,-6.424000263E-1,7.493749857E-1
1.915782037E1,3.955875039E-1,-6.424000263E-1,7.493749857E-1
1.917782037E1,3.955875039E-1,-6.424000263E-1,7.493749857E-1
1.919782037E1,-1.171912551E0,3.364624977E-1,-5.296499729E-1
1.921782037E1,-1.171912551E0,3.364624977E-1,-5.296499729E-1
1.923782037E1,-1.171912551E0,3.364624977E-1,-5.296499729E-1
1.925782037E1,-1.171912551E0,3.364624977E-1,-5.296499729E-1
1.927782037E1,-1.171912551E0,3.364624977E-1,-5.296499729E-1
1.929782037E1,-4.679124951E-1,5.209875107E-1,-4.548499882E-1
1.931782037E1,-4.679124951E-1,5.209875107E-1,-4.548499882E-1
1.933782037E1,-8.148249984E-1,9.190499783E-1,-3.837625086E-1
1.933782037E1,-8.148249984E-1,9.190499783E-1,-3.837625086E-1
1.937782037E1,-8.148249984E-1,9.190499783E-1,-3.837625086E-1
1.939782037E1,-5.884999782E-2,1.291674972E0,-5.594875216E-1
1.941782037E1,-5.884999782E-2,1.291674972E0,-5.594875216E-1
1.943782037E1,4.411000013E-1,1.285624981E0,-3.790875077E-1
1.945782037E1,4.411000013E-1,1.285624981E0,-3.790875077E-1
1.947782037E1,4.411000013E-1,1.285624981E0,-3.790875077E-1
1.949782037E1,4.411000013E-1,1.285624981E0,-3.790875077E-1
1.951782037E1,4.411000013E-1,1.285624981E0,-3.790875077E-1
1.953782037E1,1.151975036E0,8.648750186E-2,5.509625077E-1
1.955782037E1,1.151975036E0,8.648750186E-2,5.509625077E-1
1.957782037E1,1.151975036E0,8.648750186E-2,5.509625077E-1
1.959782037E1,1.151975036E0,8.648750186E-2,5.509625077E-1
1.961782037E1,1.151975036E0,8.648750186E-2,5.509625077E-1
1.963782037E1,7.273749709E-1,-8.151000142E-1,1.233787537E0
1.965782037E1,7.273749709E-1,-8.151000142E-1,1.233787537E0
1.967782037E1,5.784624815E-1,-8.267874718E-1,1.043074965E0
1.969782037E1,5.784624815E-1,-8.267874718E-1,1.043074965E0
1.971782037E1,5.784624815E-1,-8.267874718E-1,1.043074965E0
1.973782037E1,5.784624815E-1,-8.267874718E-1,1.043074965E0
1.975782037E1,5.784624815E-1,-8.267874718E-1,1.043074965E0
1.977782037E1,-9.652500153E-1,8.064374924E-1,-8.260999918E-1
1.979782037E1,-9.652500153E-1,8.064374924E-1,-8.260999918E-1
1.981782037E1,-9.652500153E-1,8.064374924E-1,-8.260999918E-1
1.983782037E1,-9.652500153E-1,8.064374924E-1,-8.260999918E-1
1.985782037E1,-9.652500153E-1,8.064374924E-1,-8.260999918E-1
1.987782037E1,-1.308312535E0,1.688225031E0,-1.438524961E0
1.989782037E1,-1.308312535E0,1.688225031E0,-1.438524961E0
1.991782037E1,5.156249925E-2,1.486649990E0,-1.345024943E0
1.993782037E1,5.156249925E-2,1.486649990E0,-1.345024943E0
1.995782037E1,1.013649940E0,9.048874974E-1,-9.755625129E-1
1.997782037E1,1.013649940E0,9.048874974E-1,-9.755625129E-1
1.999782037E1,1.013649940E0,9.048874974E-1,-9.755625129E-1
2.001782037E1,6.546375155E-1,-2.177999914E-1,4.564999789E-2
2.003782037E1,6.546375155E-1,-2.177999914E-1,4.564999789E-2
2.005782037E1,6.546375155E-1,-2.177999914E-1,4.564999789E-2
2.007782037E1,6.546375155E-1,-2.177999914E-1,4.564999789E-2
2.009782037E1,6.546375155E-1,-2.177999914E-1,4.564999789E-2
2.011782037E1,-1.647250056E-1,-8.174374700E-1,6.100875139E-1
2.013782037E1,-1.647250056E-1,-8.174374700E-1,6.100875139E-1
2.015782037E1,-4.383499920E-1,-8.773875237E-1,6.983624697E-1
2.017782037E1,-4.383499920E-1,-8.773875237E-1,6.983624697E-1
2.019782037E1,-4.383499920E-1,-8.773875237E-1,6.983624697E-1
2.021782037E1,-4.383499920E-1,-8.773875237E-1,6.983624697E-1
2.023782037E1,-4.383499920E-1,-8.773875237E-1,6.983624697E-1
2.025782037E1,-4.641999900E-1,-7.030375004E-1,7.602375150E-1
2.027782037E1,-4.641999900E-1,-7.030375004E-1,7.602375150E-1
2.029782037E1,-4.641999900E-1,-7.030375004E-1,7.602375150E-1
2.031782037E1,-4.641999900E-1,-7.030375004E-1,7.602375150E-1
2.033782037E1,-4.641999900E-1,-7.030375004E-1,7.602375150E-1
2.035782037E1,-4.641999900E-1,-7.030375004E-1,7.602375150E-1
2.037782037E1,-4.641999900E-1,-7.030375004E-1,7.602375150E-1
2.039782037E1,-4.641999900E-1,-7.030375004E-1,7.602375150E-1
2.041782037E1,-4.641999900E-1,-7.030375004E-1,7.602375150E-1
2.043782037E1,-4.641999900E-1,-7.030375004E-1,7.602375150E-1
2.045782037E1,2.264624983E-1,-1.071124971E-1,-1.792999953E-1
2.047782037E1,2.264624983E-1,-1.071124971E-1,-1.792999953E-1
2.049782037E1,-6.216375232E-1,6.637125015E-1,-7.507500052E-1
2.051782037E1,-6.216375232E-1,6.637125015E-1,-7.507500052E-1
2.053782037E1,-6.216375232E-1,6.637125015E-1,-7.507500052E-1
2.055782037E1,-6.216375232E-1,6.637125015E-1,-7.507500052E-1
2.057782037E1,-6.216375232E-1,6.637125015E-1,-7.507500052E-1
2.059782037E1,-6.216375232E-1,6.637125015E-1,-7.507500052E-1
2.061782037E1,-6.216375232E-1,6.637125015E-1,-7.507500052E-1
2.063782037E1,-6.216375232E-1,6.637125015E-1,-7.507500052E-1
2.065782037E1,-6.216375232E-1,6.637125015E-1,-7.507500052E-1
2.067782037E1,-6.216375232E-1,6.637125015E-1,-7.507500052E-1
2.069782037E1,-3.497999907E-1,1.078824997E0,-7.273750007E-2
2.071782037E1,-3.497999907E-1,1.078824997E0,-7.273750007E-2
2.073782037E1,-3.497999907E-1,1.078824997E0,-7.273750007E-2
2.075782037E1,-3.497999907E-1,1.078824997E0,-7.273750007E-2
2.077782037E1,-3.497999907E-1,1.078824997E0,-7.273750007E-2
2.079782037E1,-3.497999907E-1,1.078824997E0,-7.273750007E-2
2.081782037E1,-3.497999907E-1,1.078824997E0,-7.273750007E-2
2.083782037E1,4.372499883E-2,2.785750031E-1,6.000499725E-1
2.085782037E1,4.372499883E-2,2.785750031E-1,6.000499725E-1
2.087782037E1,4.372499883E-2,2.785750031E-1,6.000499725E-1
2.089782037E1,4.372499883E-2,2.785750031E-1,6.000499725E-1
2.091782037E1,4.372499883E-2,2.785750031E-1,6.000499725E-1
2.093782037E1,5.677375197E-1,-1.505624950E-1,5.005000234E-1
2.095782037E1,5.677375197E-1,-1.505624950E-1,5.005000234E-1
2.097782037E1,1.114987493E0,-8.483750224E-1,7.151374817E-1
2.099782037E1,1.114987493E0,-8.483750224E-1,7.151374817E-1
2.101782037E1,1.114987493E0,-8.483750224E-1,7.151374817E-1
2.103782037E1,1.114987493E0,-8.483750224E-1,7.151374817E-1
2.105782037E1,1.114987493E0,-8.483750224E-1,7.151374817E-1
2.107782037E1,1.125574946E0,-1.492974997E0,1.072087526E0
2.109782037E1,1.125574946E0,-1.492974997E0,1.072087526E0
2.111782037E1,1.125574946E0,-1.492974997E0,1.072087526E0
2.113782037E1,1.125574946E0,-1.492974997E0,1.072087526E0
2.115782037E1,1.125574946E0,-1.492974997E0,1.072087526E0
2.117782037E1,-1.315875053E-1,7.782500237E-2,1.406625062E-1
2.119782037E1,-1.315875053E-1,7.782500237E-2,1.406625062E-1
2.121782037E1,-5.619624853E-1,1.446499944E0,-1.097249985E0
2.123782037E1,-5.619624853E-1,1.446499944E0,-1.097249985E0
2.125782037E1,-5.619624853E-1,1.446499944E0,-1.097249985E0
2.127782037E1,-9.666249752E-1,2.411887407E0,-2.007912397E0
2.129782037E1,-9.666249752E-1,2.411887407E0,-2.007912397E0
2.131782037E1,-1.554849982E0,2.631612539E0,-2.154762506E0
2.133782037E1,-1.554849982E0,2.631612539E0,-2.154762506E0
2.135782037E1,-1.554849982E0,2.631612539E0,-2.154762506E0
2.137782037E1,-1.554849982E0,2.631612539E0,-2.154762506E0
2.139782037E1,-1.554849982E0,2.631612539E0,-2.154762506E0
2.141782037E1,7.026249915E-2,-4.672249854E-1,8.668000102E-1
2.143782037E1,7.026249915E-2,-4.672249854E-1,8.668000102E-1
2.145782037E1,7.026249915E-2,-4.672249854E-1,8.668000102E-1
2.147782037E1,7.026249915E-2,-4.672249854E-1,8.668000102E-1
2.149782037E1,7.026249915E-2,-4.672249854E-1,8.668000102E-1
2.151782037E1,-8.084999919E-1,-1.114024997E0,1.363862514E0
2.153782037E1,-8.084999919E-1,-1.114024997E0,1.363862514E0
2.155782037E1,-5.444999933E-1,-1.210412502E0,1.680250049E0
2.157782037E1,-5.444999933E-1,-1.210412502E0,1.680250049E0
2.159782037E1,-5.444999933E-1,-1.210412502E0,1.680250049E0
2.161782037E1,-5.444999933E-1,-1.210412502E0,1.680250049E0
2.163782037E1,-5.444999933E-1,-1.210412502E0,1.680250049E0
2.165782037E1,-8.654249907E-1,-4.822124839E-1,1.019012451E0
2.167782037E1,-8.654249907E-1,-4.822124839E-1,1.019012451E0
2.169782037E1,1.554024935E0,-1.092299938E0,5.695250034E-1
2.171782037E1,1.554024935E0,-1.092299938E0,5.695250034E-1
2.173782037E1,1.554024935E0,-1.092299938E0,5.695250034E-1
2.175782037E1,1.792587519E0,-4.372499883E-1,-1.027124971E-1
2.177782037E1,1.792587519E0,-4.372499883E-1,-1.027124971E-1
2.179782037E1,1.792587519E0,-4.372499883E-1,-1.027124971E-1
2.181782037E1,1.792587519E0,-4.372499883E-1,-1.027124971E-1
2.183782037E1,1.792587519E0,-4.372499883E-1,-1.027124971E-1
2.185782037E1,1.792587519E0,-4.372499883E-1,-1.027124971E-1
2.187782037E1,1.792587519E0,-4.372499883E-1,-1.027124971E-1
2.189782037E1,-2.732675076E0,4.984650135E0,-3.018812418E0
2.191782037E1,-2.732675076E0,4.984650135E0,-3.018812418E0
2.193782037E1,-2.732675076E0,4.984650135E0,-3.018812418E0
2.195782037E1,-2.732675076E0,4.984650135E0,-3.018812418E0
2.197782037E1,-2.732675076E0,4.984650135E0,-3.018812418E0
2.199782037E1,-1.527899981E0,2.174700022E0,-7.832000256E-1
2.201782037E1,-1.527899981E0,2.174700022E0,-7.832000256E-1
2.203782037E1,-6.175125241E-1,1.049674988E0,7.433249950E-1
2.205782037E1,-6.175125241E-1,1.049674988E0,7.433249950E-1
2.207782037E1,-6.175125241E-1,1.049674988E0,7.433249950E-1
2.209782037E1,6.851624846E-1,-5.490375161E-1,3.005749941E0
2.211782037E1,6.851624846E-1,-5.490375161E-1,3.005749941E0
2.213782037E1,1.695099950E0,-9.740499854E-1,3.266725063E0
2.215782037E1,1.695099950E0,-9.740499854E-1,3.266725063E0
2.217782037E1,1.695099950E0,-9.740499854E-1,3.266725063E0
2.219782037E1,1.695099950E0,-9.740499854E-1,3.266725063E0
2.221782037E1,1.695099950E0,-9.740499854E-1,3.266725063E0
2.223782037E1,6.693499684E-1,3.240875006E-1,1.130800009E0
2.225782037E1,6.693499684E-1,3.240875006E-1,1.130800009E0
2.227782037E1,1.725624949E-1,1.248362541E0,5.499999970E-3
2.229782037E1,1.725624949E-1,1.248362541E0,5.499999970E-3
2.231782037E1,1.725624949E-1,1.248362541E0,5.499999970E-3
2.233782037E1,5.279999971E-2,2.488749981E0,-1.462450027E0
2.235782037E1,5.279999971E-2,2.488749981E0,-1.462450027E0
2.237782037E1,-5.665000081E-1,2.077762604E0,-1.770862460E0
2.239782037E1,-5.665000081E-1,2.077762604E0,-1.770862460E0
2.241782037E1,-5.665000081E-1,2.077762604E0,-1.770862460E0
2.243782037E1,-5.665000081E-1,2.077762604E0,-1.770862460E0
2.245782037E1,-5.665000081E-1,2.077762604E0,-1.770862460E0
2.247782037E1,-6.755374670E-1,1.397962451E0,-1.508237481E0
2.249782037E1,-6.755374670E-1,1.397962451E0,-1.508237481E0
2.251782037E1,-6.755374670E-1,1.397962451E0,-1.508237481E0
2.253782037E1,-6.755374670E-1,1.397962451E0,-1.508237481E0
2.255782037E1,-6.755374670E-1,1.397962451E0,-1.508237481E0
2.257782037E1,-6.755374670E-1,1.397962451E0,-1.508237481E0
2.259782037E1,-6.755374670E-1,1.397962451E0,-1.508237481E0
2.261782037E1,-6.755374670E-1,1.397962451E0,-1.508237481E0
2.263782037E1,-6.755374670E-1,1.397962451E0,-1.508237481E0
2.265782037E1,-6.755374670E-1,1.397962451E0,-1.508237481E0
2.267782037E1,-6.755374670E-1,1.397962451E0,-1.508237481E0
2.269782037E1,-6.755374670E-1,1.397962451E0,-1.508237481E0
2.271782037E1,-9.894499779E-1,-3.781250119E-2,3.121249974E-1
2.273782037E1,-9.894499779E-1,-3.781250119E-2,3.121249974E-1
2.275782037E1,-8.870124817E-1,3.404499888E-1,4.802874923E-1
2.277782037E1,-8.870124817E-1,3.404499888E-1,4.802874923E-1
2.279782037E1,-8.870124817E-1,3.404499888E-1,4.802874923E-1
2.281782037E1,-9.526000023E-1,5.486249924E-2,1.487475038E0
2.283782037E1,-9.526000023E-1,5.486249924E-2,1.487475038E0
2.285782037E1,-7.260000110E-1,6.484500170E-1,1.508649945E0
2.287782037E1,-7.260000110E-1,6.484500170E-1,1.508649945E0
2.289782037E1,-7.260000110E-1,6.484500170E-1,1.508649945E0
2.291782037E1,-5.036625266E-1,1.618787527E0,1.216737509E0
2.293782037E1,-5.036625266E-1,1.618787527E0,1.216737509E0
2.295782037E1,9.790000319E-2,3.593012571E0,9.581000209E-1
2.297782037E1,9.790000319E-2,3.593012571E0,9.581000209E-1
2.299782037E1,9.790000319E-2,3.593012571E0,9.581000209E-1
2.301782037E1,9.790000319E-2,3.593012571E0,9.581000209E-1
2.303782037E1,9.790000319E-2,3.593012571E0,9.581000209E-1
2.305782037E1,6.764999777E-2,2.781625032E0,-8.720250130E-1
2.307782037E1,6.764999777E-2,2.781625032E0,-8.720250130E-1
2.309782037E1,6.455624700E-1,2.226262569E0,-2.109112501E0
2.311782037E1,6.455624700E-1,2.226262569E0,-2.109112501E0
2.313782037E1,6.455624700E-1,2.226262569E0,-2.109112501E0
2.315782037E1,5.329499841E-1,9.362375140E-1,-1.892137527E0
2.317782037E1,5.329499841E-1,9.362375140E-1,-1.892137527E0
2.319782037E1,-3.264249861E-1,-1.054212451E0,-2.180337429E0
2.321782037E1,-3.264249861E-1,-1.054212451E0,-2.180337429E0
2.323782037E1,-6.242499873E-2,-5.011875033E-1,-1.397274971E0
2.325782037E1,-6.242499873E-2,-5.011875033E-1,-1.397274971E0
2.327782037E1,-6.242499873E-2,-5.011875033E-1,-1.397274971E0
2.329782037E1,-6.242499873E-2,-5.011875033E-1,-1.397274971E0
2.331782037E1,-6.242499873E-2,-5.011875033E-1,-1.397274971E0
2.333782037E1,-6.242499873E-2,-5.011875033E-1,-1.397274971E0
2.335782037E1,-6.242499873E-2,-5.011875033E-1,-1.397274971E0
2.337782037E1,-6.242499873E-2,-5.011875033E-1,-1.397274971E0
2.339782037E1,-2.461249940E-2,-1.673374921E-1,1.122550011E0
2.341782037E1,-2.461249940E-2,-1.673374921E-1,1.122550011E0
2.343782037E1,9.168499708E-1,2.810637474E0,2.570149899E0
2.345782037E1,9.168499708E-1,2.810637474E0,2.570149899E0
2.347782037E1,9.168499708E-1,2.810637474E0,2.570149899E0
2.349782037E1,9.168499708E-1,2.810637474E0,2.570149899E0
2.351782037E1,9.168499708E-1,2.810637474E0,2.570149899E0
2.353782037E1,2.708750032E-2,5.814874768E-1,1.473862529E0
2.355782037E1,2.708750032E-2,5.814874768E-1,1.473862529E0
2.357782037E1,2.708750032E-2,5.814874768E-1,1.473862529E0
2.359782037E1,2.708750032E-2,5.814874768E-1,1.473862529E0
2.361782037E1,2.708750032E-2,5.814874768E-1,1.473862529E0
2.363782037E1,-2.052875012E-1,-1.157199979E0,-7.191249728E-1
2.365782037E1,-2.052875012E-1,-1.157199979E0,-7.191249728E-1
2.367782037E1,-2.052875012E-1,-1.157199979E0,-7.191249728E-1
2.369782037E1,-2.052875012E-1,-1.157199979E0,-7.191249728E-1
2.371782037E1,-2.052875012E-1,-1.157199979E0,-7.191249728E-1
2.373782037E1,-2.052875012E-1,-1.157199979E0,-7.191249728E-1
2.375782037E1,-2.052875012E-1,-1.157199979E0,-7.191249728E-1
2.377782037E1,-2.052875012E-1,-1.157199979E0,-7.191249728E-1
2.379782037E1,-2.052875012E-1,-1.157199979E0,-7.191249728E-1
2.381782037E1,-2.052875012E-1,-1.157199979E0,-7.191249728E-1
2.383782037E1,-2.052875012E-1,-1.157199979E0,-7.191249728E-1
2.385782037E1,-2.052875012E-1,-1.157199979E0,-7.191249728E-1
2.387782037E1,-3.126749992E-1,5.658124685E-1,-5.219500065E-1
2.389782037E1,-3.126749992E-1,5.658124685E-1,-5.219500065E-1
2.391782037E1,1.996500045E-1,1.644500017E0,-1.479499936E-1
2.393782037E1,1.996500045E-1,1.644500017E0,-1.479499936E-1
2.395782037E1,1.996500045E-1,1.644500017E0,-1.479499936E-1
2.397782037E1,3.698749840E-2,1.514287472E0,3.123999834E-1
2.399782037E1,3.698749840E-2,1.514287472E0,3.123999834E-1
2.401782037E1,-5.094375014E-1,4.372499883E-1,2.591874897E-1
2.403782037E1,-5.094375014E-1,4.372499883E-1,2.591874897E-1
2.405782037E1,-5.094375014E-1,4.372499883E-1,2.591874897E-1
2.407782037E1,-5.094375014E-1,4.372499883E-1,2.591874897E-1
2.409782037E1,-5.094375014E-1,4.372499883E-1,2.591874897E-1
2.411782037E1,-1.060537457E0,-5.472499877E-2,8.874250054E-1
2.413782037E1,-1.060537457E0,-5.472499877E-2,8.874250054E-1
2.415782037E1,-1.060537457E0,-5.472499877E-2,8.874250054E-1
2.417782037E1,-1.060537457E0,-5.472499877E-2,8.874250054E-1
2.419782037E1,-1.060537457E0,-5.472499877E-2,8.874250054E-1
2.421782037E1,-1.000450015E0,7.576249838E-1,8.801375031E-1
2.423782037E1,-1.000450015E0,7.576249838E-1,8.801375031E-1
2.425782037E1,-8.051999807E-1,1.994850039E0,1.573274970E0
2.427782037E1,-8.051999807E-1,1.994850039E0,1.573274970E0
2.429782037E1,-8.051999807E-1,1.994850039E0,1.573274970E0
2.431782037E1,-8.051999807E-1,1.994850039E0,1.573274970E0
2.433782037E1,-8.051999807E-1,1.994850039E0,1.573274970E0
2.435782037E1,-3.093749881E-1,1.048437476E0,7.323250175E-1
2.437782037E1,-3.093749881E-1,1.048437476E0,7.323250175E-1
2.439782037E1,2.641375065E-1,-9.121749997E-1,-9.926124811E-1
2.441782037E1,2.641375065E-1,-9.121749997E-1,-9.926124811E-1
2.443782037E1,2.641375065E-1,-9.121749997E-1,-9.926124811E-1
2.445782037E1,1.966249943E-1,-2.232037544E0,-2.424949884E0
2.447782037E1,1.966249943E-1,-2.232037544E0,-2.424949884E0
2.449782037E1,1.966249943E-1,-2.232037544E0,-2.424949884E0
2.451782037E1,1.966249943E-1,-2.232037544E0,-2.424949884E0
2.453782037E1,1.966249943E-1,-2.232037544E0,-2.424949884E0
2.455782037E1,1.966249943E-1,-2.232037544E0,-2.424949884E0
2.457782037E1,1.966249943E-1,-2.232037544E0,-2.424949884E0
2.459782037E1,1.966249943E-1,-2.232037544E0,-2.424949884E0
2.461782037E1,1.966249943E-1,-2.232037544E0,-2.424949884E0
2.463782037E1,1.966249943E-1,-2.232037544E0,-2.424949884E0
2.465782037E1,1.966249943E-1,-2.232037544E0,-2.424949884E0
2.467782037E1,1.966249943E-1,-2.232037544E0,-2.424949884E0
2.469782037E1,4.061749876E-1,1.635287523E0,1.381600022E0
2.471782037E1,4.061749876E-1,1.635287523E0,1.381600022E0
2.473782037E1,2.455749959E-1,1.898599982E0,1.073737502E0
2.475782037E1,2.455749959E-1,1.898599982E0,1.073737502E0
2.477782037E1,2.455749959E-1,1.898599982E0,1.073737502E0
2.479782037E1,1.297999918E-1,1.725075006E0,1.104537487E0
2.481782037E1,1.297999918E-1,1.725075006E0,1.104537487E0
2.483782037E1,1.297999918E-1,1.725075006E0,1.104537487E0
2.485782037E1,1.297999918E-1,1.725075006E0,1.104537487E0
2.487782037E1,1.297999918E-1,1.725075006E0,1.104537487E0
2.489782037E1,1.297999918E-1,1.725075006E0,1.104537487E0
2.491782037E1,1.297999918E-1,1.725075006E0,1.104537487E0
2.493782037E1,3.932499886E-2,-1.617412448E0,-1.621399999E0
2.495782037E1,3.932499886E-2,-1.617412448E0,-1.621399999E0
2.497782037E1,3.026374876E-1,-1.472900033E0,-2.557775021E0
2.499782037E1,3.026374876E-1,-1.472900033E0,-2.557775021E0
2.501782037E1,3.026374876E-1,-1.472900033E0,-2.557775021E0
2.503782037E1,3.957250118E-1,-6.942374706E-1,-1.880587459E0
2.505782037E1,3.957250118E-1,-6.942374706E-1,-1.880587459E0
2.507782037E1,4.835875034E-1,-1.280124933E-1,-1.327012539E0
2.509782037E1,4.835875034E-1,-1.280124933E-1,-1.327012539E0
2.511782037E1,4.835875034E-1,-1.280124933E-1,-1.327012539E0
2.513782037E1,4.835875034E-1,-1.280124933E-1,-1.327012539E0
2.515782037E1,4.835875034E-1,-1.280124933E-1,-1.327012539E0
2.517782037E1,4.835875034E-1,-1.280124933E-1,-1.327012539E0
2.519782037E1,4.835875034E-1,-1.280124933E-1,-1.327012539E0
2.521782037E1,4.835875034E-1,-1.280124933E-1,-1.327012539E0
2.523782037E1,4.835875034E-1,-1.280124933E-1,-1.327012539E0
2.525782037E1,4.835875034E-1,-1.280124933E-1,-1.327012539E0
2.527782037E1,-6.895624995E-1,4.521000087E-1,8.373749852E-1
2.529782037E1,-6.895624995E-1,4.521000087E-1,8.373749852E-1
2.531782037E1,-1.009799957E0,7.937874794E-1,6.740249991E-1
2.533782037E1,-1.009799957E0,7.937874794E-1,6.740249991E-1
2.535782037E1,-1.009799957E0,7.937874794E-1,6.740249991E-1
2.537782037E1,-1.009799957E0,7.937874794E-1,6.740249991E-1
2.539782037E1,-1.009799957E0,7.937874794E-1,6.740249991E-1
2.541782037E1,-9.828500152E-1,2.561762571E0,1.060675025E0
2.543782037E1,-9.828500152E-1,2.561762571E0,1.060675025E0
2.545782037E1,-7.561125159E-1,2.144037485E0,9.466875196E-1
2.547782037E1,-7.561125159E-1,2.144037485E0,9.466875196E-1
2.549782037E1,-7.561125159E-1,2.144037485E0,9.466875196E-1
2.551782037E1,-7.561125159E-1,2.144037485E0,9.466875196E-1
2.553782037E1,-7.561125159E-1,2.144037485E0,9.466875196E-1
2.555782037E1,-7.561125159E-1,2.144037485E0,9.466875196E-1
2.557782037E1,-7.561125159E-1,2.144037485E0,9.466875196E-1
2.559782037E1,-7.561125159E-1,2.144037485E0,9.466875196E-1
2.561782037E1,2.069374919E-1,-2.957074881E0,-1.856937528E0
2.563782037E1,2.069374919E-1,-2.957074881E0,-1.856937528E0
2.565782037E1,2.069374919E-1,-2.957074881E0,-1.856937528E0
2.567782037E1,2.069374919E-1,-2.957074881E0,-1.856937528E0
2.569782037E1,2.069374919E-1,-2.957074881E0,-1.856937528E0
2.571782037E1,2.069374919E-1,-2.957074881E0,-1.856937528E0
2.573782037E1,2.069374919E-1,-2.957074881E0,-1.856937528E0
2.575782037E1,-6.311249733E-2,-1.333750010E0,2.021249980E-1
2.577782037E1,-6.311249733E-2,-1.333750010E0,2.021249980E-1
2.579782037E1,2.828375101E-1,-6.737499963E-3,7.555624843E-1
2.581782037E1,2.828375101E-1,-6.737499963E-3,7.555624843E-1
2.583782037E1,2.828375101E-1,-6.737499963E-3,7.555624843E-1
2.585782037E1,7.526749969E-1,1.606412530E0,7.742624879E-1
2.587782037E1,7.526749969E-1,1.606412530E0,7.742624879E-1
2.589782037E1,8.039624691E-1,1.628962517E0,8.937499672E-2
2.591782037E1,8.039624691E-1,1.628962517E0,8.937499672E-2
2.593782037E1,8.039624691E-1,1.628962517E0,8.937499672E-2
2.595782037E1,8.039624691E-1,1.628962517E0,8.937499672E-2
2.597782037E1,8.039624691E-1,1.628962517E0,8.937499672E-2
2.599782037E1,6.406124830E-1,1.460525036E0,2.899875045E-1
2.601782037E1,6.406124830E-1,1.460525036E0,2.899875045E-1
2.603782037E1,6.406124830E-1,1.460525036E0,2.899875045E-1
2.605782037E1,6.406124830E-1,1.460525036E0,2.899875045E-1
2.607782037E1,6.406124830E-1,1.460525036E0,2.899875045E-1
2.609782037E1,-2.619374990E-1,-1.722874939E-1,2.076249942E-2
2.611782037E1,-2.619374990E-1,-1.722874939E-1,2.076249942E-2
2.613782037E1,-2.829749882E-1,-9.338999987E-1,-8.833000064E-1
2.615782037E1,-2.829749882E-1,-9.338999987E-1,-8.833000064E-1
2.617782037E1,-2.829749882E-1,-9.338999987E-1,-8.833000064E-1
2.619782037E1,-2.829749882E-1,-9.338999987E-1,-8.833000064E-1
2.621782037E1,-2.829749882E-1,-9.338999987E-1,-8.833000064E-1
2.623782037E1,8.387500420E-3,-9.931625128E-1,-1.821324944E0
2.625782037E1,8.387500420E-3,-9.931625128E-1,-1.821324944E0
2.627782037E1,8.387500420E-3,-9.931625128E-1,-1.821324944E0
2.629782037E1,8.387500420E-3,-9.931625128E-1,-1.821324944E0
2.631782037E1,8.387500420E-3,-9.931625128E-1,-1.821324944E0
2.633782037E1,5.341874957E-1,7.251750231E-1,-7.463499904E-1
2.635782037E1,5.341874957E-1,7.251750231E-1,-7.463499904E-1
2.637782037E1,1.476749927E-1,5.803874731E-1,2.452999949E-1
2.639782037E1,1.476749927E-1,5.803874731E-1,2.452999949E-1
2.641782037E1,1.476749927E-1,5.803874731E-1,2.452999949E-1
2.643782037E1,1.476749927E-1,5.803874731E-1,2.452999949E-1
2.645782037E1,1.476749927E-1,5.803874731E-1,2.452999949E-1
2.647782037E1,-1.144549966E0,1.820500046E-1,1.600912452E0
2.649782037E1,-1.144549966E0,1.820500046E-1,1.600912452E0
2.651782037E1,-1.012962461E0,3.306874931E-1,1.069474936E0
2.653782037E1,-1.012962461E0,3.306874931E-1,1.069474936E0
2.655782037E1,-1.012962461E0,3.306874931E-1,1.069474936E0
2.657782037E1,-1.012962461E0,3.306874931E-1,1.069474936E0
2.659782037E1,-1.012962461E0,3.306874931E-1,1.069474936E0
2.661782037E1,-1.012962461E0,3.306874931E-1,1.069474936E0
2.663782037E1,-1.012962461E0,3.306874931E-1,1.069474936E0
2.665782037E1,-1.012962461E0,3.306874931E-1,1.069474936E0
2.667782037E1,-2.718375027E-1,2.068962574E0,1.149500012E0
2.669782037E1,-2.718375027E-1,2.068962574E0,1.149500012E0
2.671782037E1,2.022625059E-1,6.962999701E-1,1.764124930E-1
2.673782037E1,2.022625059E-1,6.962999701E-1,1.764124930E-1
2.675782037E1,2.022625059E-1,6.962999701E-1,1.764124930E-1
2.677782037E1,2.022625059E-1,6.962999701E-1,1.764124930E-1
2.679782037E1,2.022625059E-1,6.962999701E-1,1.764124930E-1
2.681782037E1,4.444000125E-1,-1.527625024E-1,4.831750095E-1
2.683782037E1,4.444000125E-1,-1.527625024E-1,4.831750095E-1
2.685782037E1,3.473249972E-1,-2.662687540E0,-9.535624981E-1
2.687782037E1,3.473249972E-1,-2.662687540E0,-9.535624981E-1
2.689782037E1,3.473249972E-1,-2.662687540E0,-9.535624981E-1
2.691782037E1,4.006749988E-1,-3.067212582E0,-1.628687501E0
2.693782037E1,4.006749988E-1,-3.067212582E0,-1.628687501E0
2.695782037E1,4.090625048E-1,-2.266000032E0,-1.360700011E0
2.697782037E1,4.090625048E-1,-2.266000032E0,-1.360700011E0
2.699782037E1,4.090625048E-1,-2.266000032E0,-1.360700011E0
2.701782037E1,4.090625048E-1,-2.266000032E0,-1.360700011E0
2.703782037E1,4.090625048E-1,-2.266000032E0,-1.360700011E0
2.705782037E1,5.306124687E-1,-4.307875037E-1,-5.061374903E-1
2.707782037E1,5.306124687E-1,-4.307875037E-1,-5.061374903E-1
2.709782037E1,5.306124687E-1,-4.307875037E-1,-5.061374903E-1
2.711782037E1,5.306124687E-1,-4.307875037E-1,-5.061374903E-1
2.713782037E1,5.306124687E-1,-4.307875037E-1,-5.061374903E-1
2.715782037E1,1.023137450E0,1.712287545E0,7.816874981E-1
2.717782037E1,1.023137450E0,1.712287545E0,7.816874981E-1
2.719782037E1,1.023137450E0,1.712287545E0,7.816874981E-1
2.721782037E1,1.023137450E0,1.712287545E0,7.816874981E-1
2.723782037E1,1.023137450E0,1.712287545E0,7.816874981E-1
2.725782037E1,1.023137450E0,1.712287545E0,7.816874981E-1
2.727782037E1,1.023137450E0,1.712287545E0,7.816874981E-1
2.729782037E1,-8.621250093E-2,1.185112476E0,1.247674942E0
2.731782037E1,-8.621250093E-2,1.185112476E0,1.247674942E0
2.733782037E1,-8.621250093E-2,1.185112476E0,1.247674942E0
2.735782037E1,-8.621250093E-2,1.185112476E0,1.247674942E0
2.737782037E1,-8.621250093E-2,1.185112476E0,1.247674942E0
2.739782037E1,-2.673000097E-1,-3.425124884E-1,-3.244999945E-1
2.741782037E1,-2.673000097E-1,-3.425124884E-1,-3.244999945E-1
2.743782037E1,-6.091250107E-2,-1.162150025E0,-1.928162456E0
2.745782037E1,-6.091250107E-2,-1.162150025E0,-1.928162456E0
2.747782037E1,-6.091250107E-2,-1.162150025E0,-1.928162456E0
2.749782037E1,8.362749815E-1,5.912499968E-3,-2.288825035E0
2.751782037E1,8.362749815E-1,5.912499968E-3,-2.288825035E0
2.753782037E1,8.097375035E-1,3.547500074E-2,-2.586512566E0
2.755782037E1,8.097375035E-1,3.547500074E-2,-2.586512566E0
2.757782037E1,8.097375035E-1,3.547500074E-2,-2.586512566E0
2.759782037E1,8.097375035E-1,3.547500074E-2,-2.586512566E0
2.761782037E1,8.097375035E-1,3.547500074E-2,-2.586512566E0
2.763782037E1,-5.643000007E-1,7.229750156E-1,5.872625113E-1
2.765782037E1,-5.643000007E-1,7.229750156E-1,5.872625113E-1
2.767782037E1,-5.643000007E-1,7.229750156E-1,5.872625113E-1
2.769782037E1,-5.643000007E-1,7.229750156E-1,5.872625113E-1
2.771782037E1,-5.643000007E-1,7.229750156E-1,5.872625113E-1
2.773782037E1,-1.226912498E0,2.172500044E-1,4.761624932E-1
2.775782037E1,-1.226912498E0,2.172500044E-1,4.761624932E-1
2.777782037E1,-1.375550032E0,4.839999974E-1,9.014499784E-1
2.779782037E1,-1.375550032E0,4.839999974E-1,9.014499784E-1
2.781782037E1,-1.375550032E0,4.839999974E-1,9.014499784E-1
2.783782037E1,-1.375550032E0,4.839999974E-1,9.014499784E-1
2.785782037E1,-1.375550032E0,4.839999974E-1,9.014499784E-1
2.787782037E1,-1.399474978E0,1.181537509E0,1.281224966E0
2.789782037E1,-1.399474978E0,1.181537509E0,1.281224966E0
2.791782037E1,-1.399474978E0,1.181537509E0,1.281224966E0
2.793782037E1,-1.399474978E0,1.181537509E0,1.281224966E0
2.795782037E1,-1.399474978E0,1.181537509E0,1.281224966E0
2.797782037E1,5.070999861E-1,9.942625165E-1,7.294374704E-1
2.799782037E1,5.070999861E-1,9.942625165E-1,7.294374704E-1
2.801782037E1,5.649874806E-1,-9.861499667E-1,-1.662375033E-1
2.803782037E1,5.649874806E-1,-9.861499667E-1,-1.662375033E-1
2.805782037E1,5.649874806E-1,-9.861499667E-1,-1.662375033E-1
2.807782037E1,5.649874806E-1,-9.861499667E-1,-1.662375033E-1
2.809782037E1,5.649874806E-1,-9.861499667E-1,-1.662375033E-1
2.811782037E1,7.937874794E-1,-2.751924992E0,-1.650137544E0
2.813782037E1,7.937874794E-1,-2.751924992E0,-1.650137544E0
2.815782037E1,7.937874794E-1,-2.751924992E0,-1.650137544E0
2.817782037E1,7.937874794E-1,-2.751924992E0,-1.650137544E0
2.819782037E1,7.937874794E-1,-2.751924992E0,-1.650137544E0
2.821782037E1,-5.788749829E-2,-2.046274900E0,-5.531625152E-1
2.823782037E1,-5.788749829E-2,-2.046274900E0,-5.531625152E-1
2.825782037E1,5.758500099E-1,-4.455000162E-2,1.457500011E-1
2.827782037E1,5.758500099E-1,-4.455000162E-2,1.457500011E-1
2.829782037E1,5.758500099E-1,-4.455000162E-2,1.457500011E-1
2.831782037E1,6.873624921E-1,1.000037551E0,4.753375053E-1
2.833782037E1,6.873624921E-1,1.000037551E0,4.753375053E-1
2.835782037E1,6.006000042E-1,1.191849947E0,2.928749919E-1
2.837782037E1,6.006000042E-1,1.191849947E0,2.928749919E-1
2.839782037E1,4.823499918E-1,1.149637461E0,3.595624864E-1
2.841782037E1,4.823499918E-1,1.149637461E0,3.595624864E-1
2.843782037E1,4.823499918E-1,1.149637461E0,3.595624864E-1
2.845782037E1,5.062749982E-1,1.464100003E0,5.545374751E-1
2.847782037E1,5.062749982E-1,1.464100003E0,5.545374751E-1
2.849782037E1,5.062749982E-1,1.464100003E0,5.545374751E-1
2.851782037E1,5.062749982E-1,1.464100003E0,5.545374751E-1
2.853782037E1,5.062749982E-1,1.464100003E0,5.545374751E-1
2.855782037E1,-5.193374753E-1,5.033875108E-1,7.818250060E-1
2.857782037E1,-5.193374753E-1,5.033875108E-1,7.818250060E-1
2.859782037E1,-5.193374753E-1,5.033875108E-1,7.818250060E-1
2.861782037E1,-5.193374753E-1,5.033875108E-1,7.818250060E-1
2.863782037E1,-5.193374753E-1,5.033875108E-1,7.818250060E-1
2.865782037E1,-5.193374753E-1,5.033875108E-1,7.818250060E-1
2.867782037E1,-5.193374753E-1,5.033875108E-1,7.818250060E-1
2.869782037E1,3.106124997E-1,-1.120900035E0,-1.765912533E0
2.871782037E1,3.106124997E-1,-1.120900035E0,-1.765912533E0
2.873782037E1,3.106124997E-1,-1.120900035E0,-1.765912533E0
2.875782037E1,3.106124997E-1,-1.120900035E0,-1.765912533E0
2.877782037E1,3.106124997E-1,-1.120900035E0,-1.765912533E0
2.879782037E1,5.467000008E-1,-4.881250113E-2,-1.229112506E0
2.881782037E1,5.467000008E-1,-4.881250113E-2,-1.229112506E0
2.883782037E1,-1.132999957E-1,1.006499976E-1,6.599999964E-3
2.885782037E1,-1.132999957E-1,1.006499976E-1,6.599999964E-3
2.887782037E1,-1.132999957E-1,1.006499976E-1,6.599999964E-3
2.889782037E1,-1.132999957E-1,1.006499976E-1,6.599999964E-3
2.891782037E1,-1.132999957E-1,1.006499976E-1,6.599999964E-3
2.893782037E1,-7.204999924E-1,5.747500062E-1,7.404375076E-1
2.895782037E1,-7.204999924E-1,5.747500062E-1,7.404375076E-1
2.897782037E1,-7.204999924E-1,5.747500062E-1,7.404375076E-1
2.899782037E1,-7.204999924E-1,5.747500062E-1,7.404375076E-1
2.901782037E1,-7.204999924E-1,5.747500062E-1,7.404375076E-1
2.903782037E1,-1.057924986E0,1.195012450E0,1.000174999E0
2.905782037E1,-1.057924986E0,1.195012450E0,1.000174999E0
2.907782037E1,-1.057924986E0,1.195012450E0,1.000174999E0
2.909782037E1,-1.057924986E0,1.195012450E0,1.000174999E0
2.911782037E1,-1.057924986E0,1.195012450E0,1.000174999E0
2.913782037E1,-1.237637520E0,4.559499919E-1,9.374749660E-1
2.915782037E1,-1.237637520E0,4.559499919E-1,9.374749660E-1
2.917782037E1,4.399999976E-2,2.877874970E-1,5.487625003E-1
2.919782037E1,4.399999976E-2,2.877874970E-1,5.487625003E-1
2.921782037E1,2.946625054E-1,-8.234875202E-1,1.985500008E-1
2.923782037E1,2.946625054E-1,-8.234875202E-1,1.985500008E-1
2.925782037E1,2.946625054E-1,-8.234875202E-1,1.985500008E-1
2.927782037E1,6.811749935E-1,-2.548424959E0,-1.293324947E0
2.929782037E1,6.811749935E-1,-2.548424959E0,-1.293324947E0
2.931782037E1,6.811749935E-1,-2.548424959E0,-1.293324947E0
2.933782037E1,6.811749935E-1,-2.548424959E0,-1.293324947E0
2.935782037E1,6.811749935E-1,-2.548424959E0,-1.293324947E0
2.937782037E1,1.395625025E-1,-2.260637522E0,-7.436000109E-1
2.939782037E1,1.395625025E-1,-2.260637522E0,-7.436000109E-1
2.941782037E1,1.395625025E-1,-2.260637522E0,-7.436000109E-1
2.943782037E1,1.395625025E-1,-2.260637522E0,-7.436000109E-1
2.945782037E1,1.395625025E-1,-2.260637522E0,-7.436000109E-1
2.947782037E1,1.395625025E-1,-2.260637522E0,-7.436000109E-1
2.949782037E1,1.395625025E-1,-2.260637522E0,-7.436000109E-1
2.951782037E1,5.871250033E-1,1.082674980E0,3.653374910E-1
2.953782037E1,5.871250033E-1,1.082674980E0,3.653374910E-1
2.955782037E1,5.871250033E-1,1.082674980E0,3.653374910E-1
2.957782037E1,5.871250033E-1,1.082674980E0,3.653374910E-1
2.959782037E1,5.871250033E-1,1.082674980E0,3.653374910E-1
2.961782037E1,3.811500072E-1,1.972849965E0,6.355249882E-1
2.963782037E1,3.811500072E-1,1.972849965E0,6.355249882E-1
2.965782037E1,3.811500072E-1,1.972849965E0,6.355249882E-1
2.967782037E1,3.811500072E-1,1.972849965E0,6.355249882E-1
2.969782037E1,3.811500072E-1,1.972849965E0,6.355249882E-1
2.971782037E1,3.811500072E-1,1.972849965E0,6.355249882E-1
2.973782037E1,3.811500072E-1,1.972849965E0,6.355249882E-1
2.975782037E1,-9.637374878E-1,-2.355374992E-1,-2.736249939E-2
2.977782037E1,-9.637374878E-1,-2.355374992E-1,-2.736249939E-2
2.979782037E1,-9.637374878E-1,-2.355374992E-1,-2.736249939E-2
2.981782037E1,-9.637374878E-1,-2.355374992E-1,-2.736249939E-2
2.983782037E1,-9.637374878E-1,-2.355374992E-1,-2.736249939E-2
2.985782037E1,2.257750034E-1,-1.104262471E0,-2.469774961E0
2.987782037E1,2.257750034E-1,-1.104262471E0,-2.469774961E0
2.989782037E1,-5.596249923E-2,-5.317124724E-1,-1.136299968E0
2.991782037E1,-5.596249923E-2,-5.317124724E-1,-1.136299968E0
2.993782037E1,-5.596249923E-2,-5.317124724E-1,-1.136299968E0
2.995782037E1,-5.596249923E-2,-5.317124724E-1,-1.136299968E0
2.997782037E1,-5.596249923E-2,-5.317124724E-1,-1.136299968E0
2.999782037E1,-9.798250198E-1,7.679374814E-1,1.535599947E0
3.001782037E1,-9.798250198E-1,7.679374814E-1,1.535599947E0
3.003782037E1,-9.798250198E-1,7.679374814E-1,1.535599947E0
3.005782037E1,-9.798250198E-1,7.679374814E-1,1.535599947E0
3.007782037E1,-9.798250198E-1,7.679374814E-1,1.535599947E0
3.009782037E1,-1.609025002E0,1.441550016E0,2.057962418E0
3.011782037E1,-1.609025002E0,1.441550016E0,2.057962418E0
3.013782037E1,-1.609025002E0,1.441550016E0,2.057962418E0
3.015782037E1,-1.609025002E0,1.441550016E0,2.057962418E0
3.017782037E1,-1.609025002E0,1.441550016E0,2.057962418E0
3.019782037E1,2.997500002E-1,1.291262507E0,4.628250003E-1
3.021782037E1,2.997500002E-1,1.291262507E0,4.628250003E-1
3.023782037E1,2.997500002E-1,1.291262507E0,4.628250003E-1
3.025782037E1,2.997500002E-1,1.291262507E0,4.628250003E-1
3.027782037E1,2.997500002E-1,1.291262507E0,4.628250003E-1
3.029782037E1,2.997500002E-1,1.291262507E0,4.628250003E-1
3.031782037E1,2.997500002E-1,1.291262507E0,4.628250003E-1
3.033782037E1,7.772874832E-1,1.534499973E-1,-4.969249964E-1
3.035782037E1,7.772874832E-1,1.534499973E-1,-4.969249964E-1
3.037782037E1,8.648750186E-1,7.493750006E-2,-1.071674943E0
3.039782037E1,8.648750186E-1,7.493750006E-2,-1.071674943E0
3.041782037E1,8.648750186E-1,7.493750006E-2,-1.071674943E0
3.043782037E1,1.314087510E0,4.397250116E-1,-1.558012486E0
3.045782037E1,1.314087510E0,4.397250116E-1,-1.558012486E0
3.047782037E1,1.314087510E0,4.397250116E-1,-1.558012486E0
3.049782037E1,1.314087510E0,4.397250116E-1,-1.558012486E0
3.051782037E1,1.314087510E0,4.397250116E-1,-1.558012486E0
3.053782037E1,1.314087510E0,4.397250116E-1,-1.558012486E0
3.055782037E1,1.314087510E0,4.397250116E-1,-1.558012486E0
3.057782037E1,1.314087510E0,4.397250116E-1,-1.558012486E0
3.059782037E1,1.314087510E0,4.397250116E-1,-1.558012486E0
3.061782037E1,-4.690124989E-1,1.093262553E0,-8.249999583E-2
3.063782037E1,-4.690124989E-1,1.093262553E0,-8.249999583E-2
3.065782037E1,-4.690124989E-1,1.093262553E0,-8.249999583E-2
3.067782037E1,-2.115162373E0,1.831499934E0,1.182637453E0
3.069782037E1,-2.115162373E0,1.831499934E0,1.182637453E0
3.071782037E1,-5.758500099E-1,2.889012575E0,1.366062522E0
3.073782037E1,-5.758500099E-1,2.889012575E0,1.366062522E0
3.075782037E1,-5.758500099E-1,2.889012575E0,1.366062522E0
3.077782037E1,-5.758500099E-1,2.889012575E0,1.366062522E0
3.079782037E1,-5.758500099E-1,2.889012575E0,1.366062522E0
3.081782037E1,-6.874999963E-4,2.465374947E0,8.824750185E-1
3.083782037E1,-6.874999963E-4,2.465374947E0,8.824750185E-1
3.085782037E1,-6.874999963E-4,2.465374947E0,8.824750185E-1
3.087782037E1,-6.874999963E-4,2.465374947E0,8.824750185E-1
3.089782037E1,-6.874999963E-4,2.465374947E0,8.824750185E-1
3.091782037E1,1.098350048E0,1.843462467E0,3.606624901E-1
3.093782037E1,1.098350048E0,1.843462467E0,3.606624901E-1
3.095782037E1,1.098350048E0,1.843462467E0,3.606624901E-1
3.097782037E1,1.098350048E0,1.843462467E0,3.606624901E-1
3.099782037E1,1.098350048E0,1.843462467E0,3.606624901E-1
3.101782037E1,5.132874846E-1,1.574512482E0,-2.927374840E-1
3.103782037E1,5.132874846E-1,1.574512482E0,-2.927374840E-1
3.105782037E1,3.427875042E-1,1.356437445E0,-7.845749855E-1
3.107782037E1,3.427875042E-1,1.356437445E0,-7.845749855E-1
3.109782037E1,3.427875042E-1,1.356437445E0,-7.845749855E-1
3.111782037E1,3.427875042E-1,1.356437445E0,-7.845749855E-1
3.113782037E1,3.427875042E-1,1.356437445E0,-7.845749855E-1
3.115782037E1,-1.226499975E-1,3.342624903E-1,-1.869449973E0
3.117782037E1,-1.226499975E-1,3.342624903E-1,-1.869449973E0
3.119782037E1,-1.226499975E-1,3.342624903E-1,-1.869449973E0
3.121782037E1,-1.226499975E-1,3.342624903E-1,-1.869449973E0
3.123782037E1,-1.226499975E-1,3.342624903E-1,-1.869449973E0
3.125782037E1,-1.151562452E0,1.247812510E0,-1.417762518E0
3.127782037E1,-1.151562452E0,1.247812510E0,-1.417762518E0
3.129782037E1,-1.480737448E0,1.750650048E0,-1.301987529E0
3.131782037E1,-1.480737448E0,1.750650048E0,-1.301987529E0
3.133782037E1,-1.480737448E0,1.750650048E0,-1.301987529E0
3.135782037E1,-1.480737448E0,1.750650048E0,-1.301987529E0
3.137782037E1,-1.480737448E0,1.750650048E0,-1.301987529E0
3.139782037E1,-1.691662550E0,2.896024942E0,9.735000134E-2
3.141782037E1,-1.691662550E0,2.896024942E0,9.735000134E-2
3.143782037E1,-2.719750106E-1,1.777874947E0,2.773374915E-1
3.145782037E1,-2.719750106E-1,1.777874947E0,2.773374915E-1
3.147782037E1,-2.719750106E-1,1.777874947E0,2.773374915E-1
3.149782037E1,-1.999387503E0,2.827275038E0,1.238875017E-1
3.151782037E1,-1.999387503E0,2.827275038E0,1.238875017E-1
3.153782037E1,-2.018362522E0,2.699949980E0,3.929750025E-1
3.155782037E1,-2.018362522E0,2.699949980E0,3.929750025E-1
3.157782037E1,-2.018362522E0,2.699949980E0,3.929750025E-1
3.159782037E1,-2.018362522E0,2.699949980E0,3.929750025E-1
3.161782037E1,-2.018362522E0,2.699949980E0,3.929750025E-1
3.163782037E1,-1.397825003E0,2.192712545E0,4.283125103E-1
3.165782037E1,-1.397825003E0,2.192712545E0,4.283125103E-1
3.167782037E1,-1.397825003E0,2.192712545E0,4.283125103E-1
3.169782037E1,-1.397825003E0,2.192712545E0,4.283125103E-1
3.171782037E1,-1.397825003E0,2.192712545E0,4.283125103E-1
3.173782037E1,-8.805499673E-1,2.517487526E0,-9.594749808E-1
3.175782037E1,-8.805499673E-1,2.517487526E0,-9.594749808E-1
3.177782037E1,-1.079237461E0,2.843499899E0,-1.571074963E0
3.179782037E1,-1.079237461E0,2.843499899E0,-1.571074963E0
3.181782037E1,-1.079237461E0,2.843499899E0,-1.571074963E0
3.183782037E1,-8.761500120E-1,2.221450090E0,-1.384899974E0
3.185782037E1,-8.761500120E-1,2.221450090E0,-1.384899974E0
3.187782037E1,-5.357000232E-1,1.614112496E0,-1.269812465E0
3.189782037E1,-5.357000232E-1,1.614112496E0,-1.269812465E0
3.191782037E1,-5.357000232E-1,1.614112496E0,-1.269812465E0
3.193782037E1,-5.357000232E-1,1.614112496E0,-1.269812465E0
3.195782037E1,-5.357000232E-1,1.614112496E0,-1.269812465E0
3.197782037E1,1.919499934E-1,1.164624989E-1,-7.452499866E-1
3.199782037E1,1.919499934E-1,1.164624989E-1,-7.452499866E-1
3.201782037E1,1.919499934E-1,1.164624989E-1,-7.452499866E-1
3.203782037E1,1.919499934E-1,1.164624989E-1,-7.452499866E-1
3.205782037E1,1.919499934E-1,1.164624989E-1,-7.452499866E-1
3.207782037E1,-2.887499984E-3,-3.680875003E-1,-8.091874719E-1
3.209782037E1,-2.887499984E-3,-3.680875003E-1,-8.091874719E-1
3.211782037E1,-4.162124991E-1,-1.460250020E-1,-1.159537435E0
3.213782037E1,-4.162124991E-1,-1.460250020E-1,-1.159537435E0
3.215782037E1,-4.162124991E-1,-1.460250020E-1,-1.159537435E0
3.217782037E1,-4.162124991E-1,-1.460250020E-1,-1.159537435E0
3.219782037E1,-4.162124991E-1,-1.460250020E-1,-1.159537435E0
3.221782037E1,-1.151562452E0,1.449249983E-1,-1.231174946E0
3.223782037E1,-1.151562452E0,1.449249983E-1,-1.231174946E0
3.225782037E1,-8.219749928E-1,2.594625056E-1,-9.659374952E-1
3.227782037E1,-8.219749928E-1,2.594625056E-1,-9.659374952E-1
3.229782037E1,-8.219749928E-1,2.594625056E-1,-9.659374952E-1
3.231782037E1,-5.025625229E-1,-1.361249946E-2,-4.024625123E-1
3.233782037E1,-5.025625229E-1,-1.361249946E-2,-4.024625123E-1
3.235782037E1,-5.025625229E-1,-1.361249946E-2,-4.024625123E-1
3.237782037E1,-5.025625229E-1,-1.361249946E-2,-4.024625123E-1
3.239782037E1,-5.025625229E-1,-1.361249946E-2,-4.024625123E-1
3.241782037E1,-5.025625229E-1,-1.361249946E-2,-4.024625123E-1
3.243782037E1,-5.025625229E-1,-1.361249946E-2,-4.024625123E-1
3.245782037E1,8.089125156E-1,-3.393499851E-1,1.179749966E0
3.247782037E1,8.089125156E-1,-3.393499851E-1,1.179749966E0
3.249782037E1,1.199000001E0,-5.834124684E-1,1.781312466E0
3.251782037E1,1.199000001E0,-5.834124684E-1,1.781312466E0
3.253782037E1,1.199000001E0,-5.834124684E-1,1.781312466E0
3.255782037E1,1.391087532E0,-1.850749999E-1,1.464512467E0
3.257782037E1,1.391087532E0,-1.850749999E-1,1.464512467E0
3.259782037E1,1.391087532E0,-1.850749999E-1,1.464512467E0
3.261782037E1,1.391087532E0,-1.850749999E-1,1.464512467E0
3.263782037E1,1.391087532E0,-1.850749999E-1,1.464512467E0
3.265782037E1,1.391087532E0,-1.850749999E-1,1.464512467E0
3.267782037E1,1.391087532E0,-1.850749999E-1,1.464512467E0
3.269782037E1,5.016000271E-1,3.682250082E-1,7.862250209E-1
3.271782037E1,5.016000271E-1,3.682250082E-1,7.862250209E-1
3.273782037E1,5.016000271E-1,3.682250082E-1,7.862250209E-1
3.275782037E1,5.016000271E-1,3.682250082E-1,7.862250209E-1
3.277782037E1,5.016000271E-1,3.682250082E-1,7.862250209E-1
3.279782037E1,-1.715999991E-1,6.242499948E-1,1.490499973E-1
3.281782037E1,-1.715999991E-1,6.242499948E-1,1.490499973E-1
3.283782037E1,-3.801875114E-1,6.206749678E-1,-1.586750001E-1
3.285782037E1,-3.801875114E-1,6.206749678E-1,-1.586750001E-1
3.287782037E1,-3.801875114E-1,6.206749678E-1,-1.586750001E-1
3.289782037E1,-2.708750032E-2,9.831249714E-2,3.437499981E-3
3.291782037E1,-2.708750032E-2,9.831249714E-2,3.437499981E-3
3.293782037E1,4.461874962E-1,-9.455875158E-1,6.599999666E-1
3.295782037E1,4.461874962E-1,-9.455875158E-1,6.599999666E-1
3.297782037E1,4.461874962E-1,-9.455875158E-1,6.599999666E-1
3.299782037E1,4.461874962E-1,-9.455875158E-1,6.599999666E-1
3.301782037E1,4.461874962E-1,-9.455875158E-1,6.599999666E-1
3.303782037E1,4.916999936E-1,-1.252900004E0,1.096562505E0
3.305782037E1,4.916999936E-1,-1.252900004E0,1.096562505E0
3.307782037E1,4.916999936E-1,-1.252900004E0,1.096562505E0
3.309782037E1,4.916999936E-1,-1.252900004E0,1.096562505E0
3.311782037E1,4.916999936E-1,-1.252900004E0,1.096562505E0
3.313782037E1,1.035374999E-1,-4.362874925E-1,6.341499686E-1
3.315782037E1,1.035374999E-1,-4.362874925E-1,6.341499686E-1
3.317782037E1,-1.280124933E-1,-3.932499886E-2,3.462249935E-1
3.319782037E1,-1.280124933E-1,-3.932499886E-2,3.462249935E-1
3.321782037E1,-1.280124933E-1,-3.932499886E-2,3.462249935E-1
3.323782037E1,-1.280124933E-1,-3.932499886E-2,3.462249935E-1
3.325782037E1,-1.280124933E-1,-3.932499886E-2,3.462249935E-1
3.327782037E1,-6.154500246E-1,4.287250042E-1,1.392875016E-1
3.329782037E1,-6.154500246E-1,4.287250042E-1,1.392875016E-1
3.331782037E1,-6.154500246E-1,4.287250042E-1,1.392875016E-1
3.333782037E1,-6.154500246E-1,4.287250042E-1,1.392875016E-1
3.335782037E1,-6.154500246E-1,4.287250042E-1,1.392875016E-1
3.337782037E1,2.358125001E-1,5.168625116E-1,-5.993624926E-1
3.339782037E1,2.358125001E-1,5.168625116E-1,-5.993624926E-1
3.341782037E1,-4.978874922E-1,1.422162533E0,-1.131899953E0
3.343782037E1,-4.978874922E-1,1.422162533E0,-1.131899953E0
3.345782037E1,-4.978874922E-1,1.422162533E0,-1.131899953E0
3.347782037E1,-4.978874922E-1,1.422162533E0,-1.131899953E0
3.349782037E1,-4.978874922E-1,1.422162533E0,-1.131899953E0
3.351782037E1,-2.749999985E-4,1.326050043E0,-1.053799987E0
3.353782037E1,-2.749999985E-4,1.326050043E0,-1.053799987E0
3.355782037E1,-2.749999985E-4,1.326050043E0,-1.053799987E0
3.357782037E1,-2.749999985E-4,1.326050043E0,-1.053799987E0
3.359782037E1,-2.749999985E-4,1.326050043E0,-1.053799987E0
3.361782037E1,-5.399624705E-1,-1.374999993E-3,-3.332999945E-1
3.363782037E1,-5.399624705E-1,-1.374999993E-3,-3.332999945E-1
3.365782037E1,-5.399624705E-1,-1.374999993E-3,-3.332999945E-1
3.367782037E1,-5.399624705E-1,-1.374999993E-3,-3.332999945E-1
3.369782037E1,-5.399624705E-1,-1.374999993E-3,-3.332999945E-1
3.371782037E1,5.638874769E-1,-9.359624982E-1,-1.787499934E-1
3.373782037E1,5.638874769E-1,-9.359624982E-1,-1.787499934E-1
3.375782037E1,1.805374920E-1,-8.683124781E-1,-5.176874995E-1
3.377782037E1,1.805374920E-1,-8.683124781E-1,-5.176874995E-1
3.379782037E1,1.805374920E-1,-8.683124781E-1,-5.176874995E-1
3.381782037E1,1.805374920E-1,-8.683124781E-1,-5.176874995E-1
3.383782037E1,1.805374920E-1,-8.683124781E-1,-5.176874995E-1
3.385782037E1,3.066249937E-2,-2.487374991E-1,-1.487475038E0
3.387782037E1,3.066249937E-2,-2.487374991E-1,-1.487475038E0
3.389782037E1,-3.783999979E-1,1.076624990E-1,-1.591562510E0
3.391782037E1,-3.783999979E-1,1.076624990E-1,-1.591562510E0
3.393782037E1,-3.783999979E-1,1.076624990E-1,-1.591562510E0
3.395782037E1,-1.416249946E-2,-5.499999970E-4,-8.788999915E-1
3.397782037E1,-1.416249946E-2,-5.499999970E-4,-8.788999915E-1
3.399782037E1,-1.416249946E-2,-5.499999970E-4,-8.788999915E-1
3.401782037E1,-1.416249946E-2,-5.499999970E-4,-8.788999915E-1
3.403782037E1,-1.416249946E-2,-5.499999970E-4,-8.788999915E-1
3.405782037E1,-1.416249946E-2,-5.499999970E-4,-8.788999915E-1
3.407782037E1,-1.416249946E-2,-5.499999970E-4,-8.788999915E-1
3.409782037E1,1.321374923E-1,7.369999588E-2,7.948874831E-1
3.411782037E1,1.321374923E-1,7.369999588E-2,7.948874831E-1
3.413782037E1,1.321374923E-1,7.369999588E-2,7.948874831E-1
3.415782037E1,1.321374923E-1,7.369999588E-2,7.948874831E-1
3.417782037E1,1.321374923E-1,7.369999588E-2,7.948874831E-1
3.419782037E1,7.192624807E-1,1.567500085E-2,1.270912528E0
3.421782037E1,7.192624807E-1,1.567500085E-2,1.270912528E0
3.423782037E1,3.811500072E-1,7.699999958E-2,1.123924971E0
3.425782037E1,3.811500072E-1,7.699999958E-2,1.123924971E0
3.427782037E1,3.811500072E-1,7.699999958E-2,1.123924971E0
3.429782037E1,3.811500072E-1,7.699999958E-2,1.123924971E0
3.431782037E1,3.811500072E-1,7.699999958E-2,1.123924971E0
3.433782037E1,1.780624986E-1,-6.283749640E-2,8.981499672E-1
3.435782037E1,1.780624986E-1,-6.283749640E-2,8.981499672E-1
3.437782037E1,1.780624986E-1,-6.283749640E-2,8.981499672E-1
3.439782037E1,1.780624986E-1,-6.283749640E-2,8.981499672E-1
3.441782037E1,1.780624986E-1,-6.283749640E-2,8.981499672E-1
3.443782037E1,-9.007624984E-1,5.905625224E-1,-3.737249970E-1
3.445782037E1,-9.007624984E-1,5.905625224E-1,-3.737249970E-1
3.447782037E1,-5.567374825E-1,4.448125064E-1,-5.534374714E-1
3.449782037E1,-5.567374825E-1,4.448125064E-1,-5.534374714E-1
3.451782037E1,-5.567374825E-1,4.448125064E-1,-5.534374714E-1
3.453782037E1,-5.567374825E-1,4.448125064E-1,-5.534374714E-1
3.455782037E1,-5.567374825E-1,4.448125064E-1,-5.534374714E-1
3.457782037E1,-5.567374825E-1,4.448125064E-1,-5.534374714E-1
3.459782037E1,-5.567374825E-1,4.448125064E-1,-5.534374714E-1
3.461782037E1,4.373874962E-1,-1.578912497E0,1.089550018E0
3.463782037E1,4.373874962E-1,-1.578912497E0,1.089550018E0
3.465782037E1,4.373874962E-1,-1.578912497E0,1.089550018E0
3.467782037E1,3.492499888E-1,-1.389712453E0,1.157612443E0
3.469782037E1,3.492499888E-1,-1.389712453E0,1.157612443E0
3.471782037E1,3.492499888E-1,-1.389712453E0,1.157612443E0
3.473782037E1,3.492499888E-1,-1.389712453E0,1.157612443E0
3.475782037E1,3.492499888E-1,-1.389712453E0,1.157612443E0
3.477782037E1,4.598000050E-1,-8.871499896E-1,7.063375115E-1
3.479782037E1,4.598000050E-1,-8.871499896E-1,7.063375115E-1
3.481782037E1,4.805625081E-1,-4.830375016E-1,1.104125008E-1
3.483782037E1,4.805625081E-1,-4.830375016E-1,1.104125008E-1
3.485782037E1,4.805625081E-1,-4.830375016E-1,1.104125008E-1
3.487782037E1,4.805625081E-1,-4.830375016E-1,1.104125008E-1
3.489782037E1,4.805625081E-1,-4.830375016E-1,1.104125008E-1
3.491782037E1,-4.155249894E-1,1.245749965E-1,7.342500240E-2
3.493782037E1,-4.155249894E-1,1.245749965E-1,7.342500240E-2
3.495782037E1,-4.134624898E-1,5.321250111E-2,2.580874860E-1
3.497782037E1,-4.134624898E-1,5.321250111E-2,2.580874860E-1
3.499782037E1,-4.134624898E-1,5.321250111E-2,2.580874860E-1
3.501782037E1,-7.558375001E-1,4.999499917E-1,-2.213750035E-2
3.503782037E1,-7.558375001E-1,4.999499917E-1,-2.213750035E-2
3.505782037E1,-7.558375001E-1,4.999499917E-1,-2.213750035E-2
3.507782037E1,-7.558375001E-1,4.999499917E-1,-2.213750035E-2
3.509782037E1,-7.558375001E-1,4.999499917E-1,-2.213750035E-2
3.511782037E1,-7.558375001E-1,4.999499917E-1,-2.213750035E-2
3.513782037E1,-7.558375001E-1,4.999499917E-1,-2.213750035E-2
3.515782037E1,-3.269749880E-1,1.239974976E0,-8.445249796E-1
3.515782037E1,-3.269749880E-1,1.239974976E0,-8.445249796E-1
3.519782037E1,-3.269749880E-1,1.239974976E0,-8.445249796E-1
3.521782037E1,-3.269749880E-1,1.239974976E0,-8.445249796E-1
3.523782037E1,-3.269749880E-1,1.239974976E0,-8.445249796E-1
3.525782037E1,-3.822500110E-1,7.016624808E-1,-5.257999897E-1
3.527782037E1,-3.822500110E-1,7.016624808E-1,-5.257999897E-1
3.529782037E1,-6.765000224E-1,3.774375021E-1,-4.702500105E-1
3.531782037E1,-6.765000224E-1,3.774375021E-1,-4.702500105E-1
3.533782037E1,-6.765000224E-1,3.774375021E-1,-4.702500105E-1
3.535782037E1,-6.765000224E-1,3.774375021E-1,-4.702500105E-1
3.537782037E1,-6.765000224E-1,3.774375021E-1,-4.702500105E-1
3.539782037E1,-6.765000224E-1,3.774375021E-1,-4.702500105E-1
3.541782037E1,-6.765000224E-1,3.774375021E-1,-4.702500105E-1
3.543782037E1,-6.765000224E-1,3.774375021E-1,-4.702500105E-1
3.545782037E1,-6.765000224E-1,3.774375021E-1,-4.702500105E-1
3.547782037E1,-6.765000224E-1,3.774375021E-1,-4.702500105E-1
3.549782037E1,-1.498750001E-1,6.902500242E-2,-1.479499936E0
3.551782037E1,-1.498750001E-1,6.902500242E-2,-1.479499936E0
3.553782037E1,-1.498750001E-1,6.902500242E-2,-1.479499936E0
3.555782037E1,-1.498750001E-1,6.902500242E-2,-1.479499936E0
3.557782037E1,-1.498750001E-1,6.902500242E-2,-1.479499936E0
3.559782037E1,-4.662624896E-1,3.628624976E-1,-1.517312527E0
3.561782037E1,-4.662624896E-1,3.628624976E-1,-1.517312527E0
3.563782037E1,-7.980499864E-1,4.823499918E-1,-1.309962511E0
3.565782037E1,-7.980499864E-1,4.823499918E-1,-1.309962511E0
3.567782037E1,-1.764124930E-1,3.695999980E-1,-7.391999960E-1
3.569782037E1,-1.764124930E-1,3.695999980E-1,-7.391999960E-1
3.571782037E1,-1.764124930E-1,3.695999980E-1,-7.391999960E-1
3.573782037E1,2.952125072E-1,-7.438749820E-2,2.774749994E-1
3.575782037E1,2.952125072E-1,-7.438749820E-2,2.774749994E-1
3.577782037E1,2.952125072E-1,-7.438749820E-2,2.774749994E-1
3.579782037E1,2.952125072E-1,-7.438749820E-2,2.774749994E-1
3.581782037E1,2.952125072E-1,-7.438749820E-2,2.774749994E-1
3.583782037E1,8.519499898E-1,-3.240875006E-1,1.412400007E0
3.585782037E1,8.519499898E-1,-3.240875006E-1,1.412400007E0
3.587782037E1,8.519499898E-1,-3.240875006E-1,1.412400007E0
3.589782037E1,8.519499898E-1,-3.240875006E-1,1.412400007E0
3.591782037E1,8.519499898E-1,-3.240875006E-1,1.412400007E0
3.593782037E1,8.519499898E-1,-3.240875006E-1,1.412400007E0
3.595782037E1,8.519499898E-1,-3.240875006E-1,1.412400007E0
3.597782037E1,9.616749883E-1,-4.507249892E-1,1.700187445E0
3.599782037E1,9.616749883E-1,-4.507249892E-1,1.700187445E0
3.601782037E1,7.361750007E-1,-1.489125043E-1,9.949499965E-1
3.603782037E1,7.361750007E-1,-1.489125043E-1,9.949499965E-1
3.605782037E1,7.361750007E-1,-1.489125043E-1,9.949499965E-1
3.607782037E1,3.290374875E-1,2.503874898E-1,3.264249861E-1
3.609782037E1,3.290374875E-1,2.503874898E-1,3.264249861E-1
3.611782037E1,3.290374875E-1,2.503874898E-1,3.264249861E-1
3.613782037E1,3.290374875E-1,2.503874898E-1,3.264249861E-1
3.615782037E1,3.290374875E-1,2.503874898E-1,3.264249861E-1
3.617782037E1,3.290374875E-1,2.503874898E-1,3.264249861E-1
3.619782037E1,3.290374875E-1,2.503874898E-1,3.264249861E-1
3.621782037E1,-3.553000093E-1,2.843500078E-1,-2.139499933E-1
3.623782037E1,-3.553000093E-1,2.843500078E-1,-2.139499933E-1
3.625782037E1,-3.553000093E-1,2.843500078E-1,-2.139499933E-1
3.627782037E1,-3.553000093E-1,2.843500078E-1,-2.139499933E-1
3.629782037E1,-3.553000093E-1,2.843500078E-1,-2.139499933E-1
3.631782037E1,3.397625089E-1,-1.127637506E0,7.683500051E-1
3.633782037E1,3.397625089E-1,-1.127637506E0,7.683500051E-1
3.635782037E1,4.621374905E-1,-1.360700011E0,9.296374917E-1
3.637782037E1,4.621374905E-1,-1.360700011E0,9.296374917E-1
3.639782037E1,4.621374905E-1,-1.360700011E0,9.296374917E-1
3.641782037E1,6.771875024E-1,-1.293050051E0,8.761500120E-1
3.643782037E1,6.771875024E-1,-1.293050051E0,8.761500120E-1
3.645782037E1,7.474499941E-1,-1.037299991E0,6.841999888E-1
3.647782037E1,7.474499941E-1,-1.037299991E0,6.841999888E-1
3.649782037E1,7.474499941E-1,-1.037299991E0,6.841999888E-1
3.651782037E1,7.474499941E-1,-1.037299991E0,6.841999888E-1
3.653782037E1,7.474499941E-1,-1.037299991E0,6.841999888E-1
3.655782037E1,-7.122500241E-2,-1.571625024E-1,5.757125020E-1
3.657782037E1,-7.122500241E-2,-1.571625024E-1,5.757125020E-1
3.659782037E1,-7.122500241E-2,-1.571625024E-1,5.757125020E-1
3.661782037E1,-7.122500241E-2,-1.571625024E-1,5.757125020E-1
3.663782037E1,-7.122500241E-2,-1.571625024E-1,5.757125020E-1
3.665782037E1,-8.479624987E-1,5.948249698E-1,1.476749927E-1
3.667782037E1,-8.479624987E-1,5.948249698E-1,1.476749927E-1
3.669782037E1,-6.741625071E-1,7.062000036E-1,-3.027749956E-1
3.671782037E1,-6.741625071E-1,7.062000036E-1,-3.027749956E-1
3.673782037E1,-4.361499846E-1,6.741625071E-1,-4.959625006E-1
3.675782037E1,-4.361499846E-1,6.741625071E-1,-4.959625006E-1
3.677782037E1,-4.361499846E-1,6.741625071E-1,-4.959625006E-1
3.679782037E1,-9.259250164E-1,1.232412457E0,-7.430499792E-1
3.681782037E1,-9.259250164E-1,1.232412457E0,-7.430499792E-1
3.683782037E1,-9.259250164E-1,1.232412457E0,-7.430499792E-1
3.685782037E1,-9.259250164E-1,1.232412457E0,-7.430499792E-1
3.687782037E1,-9.259250164E-1,1.232412457E0,-7.430499792E-1
3.689782037E1,3.139125109E-1,4.705249965E-1,-6.939625144E-1
3.691782037E1,3.139125109E-1,4.705249965E-1,-6.939625144E-1
3.693782037E1,-4.758875072E-1,4.311999977E-1,-5.409250259E-1
3.695782037E1,-4.758875072E-1,4.311999977E-1,-5.409250259E-1
3.697782037E1,-4.758875072E-1,4.311999977E-1,-5.409250259E-1
3.699782037E1,-4.758875072E-1,4.311999977E-1,-5.409250259E-1
3.701782037E1,-4.758875072E-1,4.311999977E-1,-5.409250259E-1
3.703782037E1,-7.782500237E-2,1.002374962E-1,-1.006912470E0
3.705782037E1,-7.782500237E-2,1.002374962E-1,-1.006912470E0
3.707782037E1,-2.557500079E-2,7.837500423E-3,-1.251250029E0
3.709782037E1,-2.557500079E-2,7.837500423E-3,-1.251250029E0
3.711782037E1,-2.557500079E-2,7.837500423E-3,-1.251250029E0
3.713782037E1,-2.557500079E-2,7.837500423E-3,-1.251250029E0
3.715782037E1,-2.557500079E-2,7.837500423E-3,-1.251250029E0
3.717782037E1,-2.557500079E-2,7.837500423E-3,-1.251250029E0
3.719782037E1,-2.557500079E-2,7.837500423E-3,-1.251250029E0
3.721782037E1,-2.557500079E-2,7.837500423E-3,-1.251250029E0
3.723782037E1,-7.684875131E-1,5.336375237E-1,-1.828199983E0
3.725782037E1,-7.684875131E-1,5.336375237E-1,-1.828199983E0
3.727782037E1,5.871250108E-2,5.172749758E-1,-1.254137516E0
3.729782037E1,5.871250108E-2,5.172749758E-1,-1.254137516E0
3.731782037E1,5.871250108E-2,5.172749758E-1,-1.254137516E0
3.733782037E1,5.871250108E-2,5.172749758E-1,-1.254137516E0
3.735782037E1,5.871250108E-2,5.172749758E-1,-1.254137516E0
3.737782037E1,6.391000152E-1,-2.576749921E-1,6.642624736E-1
3.739782037E1,6.391000152E-1,-2.576749921E-1,6.642624736E-1
3.741782037E1,6.391000152E-1,-2.576749921E-1,6.642624736E-1
3.743782037E1,6.391000152E-1,-2.576749921E-1,6.642624736E-1
3.745782037E1,6.391000152E-1,-2.576749921E-1,6.642624736E-1
3.747782037E1,1.039499998E0,-3.158375025E-1,1.703349948E0
3.749782037E1,1.039499998E0,-3.158375025E-1,1.703349948E0
3.751782037E1,7.922750115E-1,-2.274249941E-1,1.867662549E0
3.753782037E1,7.922750115E-1,-2.274249941E-1,1.867662549E0
3.755782037E1,7.922750115E-1,-2.274249941E-1,1.867662549E0
3.757782037E1,7.922750115E-1,-2.274249941E-1,1.867662549E0
3.759782037E1,7.922750115E-1,-2.274249941E-1,1.867662549E0
3.761782037E1,5.652624965E-1,3.107500076E-2,1.469187498E0
3.763782037E1,5.652624965E-1,3.107500076E-2,1.469187498E0
3.765782037E1,5.652624965E-1,3.107500076E-2,1.469187498E0
3.767782037E1,5.652624965E-1,3.107500076E-2,1.469187498E0
3.769782037E1,5.652624965E-1,3.107500076E-2,1.469187498E0
3.771782037E1,5.788749829E-2,8.632249832E-1,-2.015749961E-1
3.773782037E1,5.788749829E-2,8.632249832E-1,-2.015749961E-1
3.775782037E1,-5.677375197E-1,1.149500012E0,-6.841999888E-1
3.777782037E1,-5.677375197E-1,1.149500012E0,-6.841999888E-1
3.779782037E1,-5.677375197E-1,1.149500012E0,-6.841999888E-1
3.781782037E1,-5.677375197E-1,1.149500012E0,-6.841999888E-1
3.783782037E1,-5.677375197E-1,1.149500012E0,-6.841999888E-1
3.785782037E1,3.466374874E-1,-1.025749967E-1,-8.813749999E-2
3.787782037E1,3.466374874E-1,-1.025749967E-1,-8.813749999E-2
3.789782037E1,3.466374874E-1,-1.025749967E-1,-8.813749999E-2
3.791782037E1,3.466374874E-1,-1.025749967E-1,-8.813749999E-2
3.793782037E1,3.466374874E-1,-1.025749967E-1,-8.813749999E-2
3.795782037E1,5.362499952E-1,-1.437975049E0,1.274075031E0
3.797782037E1,5.362499952E-1,-1.437975049E0,1.274075031E0
3.799782037E1,3.452624977E-1,-1.187175035E0,1.224025011E0
3.801782037E1,3.452624977E-1,-1.187175035E0,1.224025011E0
3.803782037E1,3.452624977E-1,-1.187175035E0,1.224025011E0
3.805782037E1,3.452624977E-1,-1.187175035E0,1.224025011E0
3.807782037E1,3.452624977E-1,-1.187175035E0,1.224025011E0
3.809782037E1,-4.622749984E-1,-1.798499972E-1,8.095999956E-1
3.811782037E1,-4.622749984E-1,-1.798499972E-1,8.095999956E-1
3.813782037E1,-4.622749984E-1,-1.798499972E-1,8.095999956E-1
3.815782037E1,-4.622749984E-1,-1.798499972E-1,8.095999956E-1
3.817782037E1,-4.622749984E-1,-1.798499972E-1,8.095999956E-1
3.819782037E1,-5.212625265E-1,2.595999837E-1,1.753125042E-1
3.821782037E1,-5.212625265E-1,2.595999837E-1,1.753125042E-1
3.823782037E1,1.909874976E-1,3.398999870E-1,-6.330500245E-1
3.825782037E1,1.909874976E-1,3.398999870E-1,-6.330500245E-1
3.827782037E1,1.909874976E-1,3.398999870E-1,-6.330500245E-1
3.829782037E1,-1.907124966E-1,7.314999700E-1,-8.687250018E-1
3.831782037E1,-1.907124966E-1,7.314999700E-1,-8.687250018E-1
3.833782037E1,-6.242499948E-1,1.535874963E0,-1.347087502E0
3.835782037E1,-6.242499948E-1,1.535874963E0,-1.347087502E0
3.837782037E1,-6.242499948E-1,1.535874963E0,-1.347087502E0
3.839782037E1,-6.242499948E-1,1.535874963E0,-1.347087502E0
3.841782037E1,-6.242499948E-1,1.535874963E0,-1.347087502E0
3.843782037E1,-3.729000092E-1,8.320124745E-1,-7.261375189E-1
3.845782037E1,-3.729000092E-1,8.320124745E-1,-7.261375189E-1
3.847782037E1,-9.752874970E-1,-5.046249926E-2,7.644999772E-2
3.849782037E1,-9.752874970E-1,-5.046249926E-2,7.644999772E-2
3.851782037E1,-9.752874970E-1,-5.046249926E-2,7.644999772E-2
3.853782037E1,-3.841750026E-1,-4.800125062E-1,-2.337499987E-3
3.855782037E1,-3.841750026E-1,-4.800125062E-1,-2.337499987E-3
3.857782037E1,-3.841750026E-1,-4.800125062E-1,-2.337499987E-3
3.859782037E1,-3.841750026E-1,-4.800125062E-1,-2.337499987E-3
3.861782037E1,-3.841750026E-1,-4.800125062E-1,-2.337499987E-3
3.863782037E1,-3.841750026E-1,-4.800125062E-1,-2.337499987E-3
3.865782037E1,-3.841750026E-1,-4.800125062E-1,-2.337499987E-3
3.867782037E1,4.848249853E-1,-2.113374919E-1,-1.574512482E0
3.869782037E1,4.848249853E-1,-2.113374919E-1,-1.574512482E0
3.871782037E1,4.848249853E-1,-2.113374919E-1,-1.574512482E0
3.873782037E1,4.848249853E-1,-2.113374919E-1,-1.574512482E0
3.875782037E1,4.848249853E-1,-2.113374919E-1,-1.574512482E0
3.877782037E1,-5.530250072E-1,-1.260875016E-1,-1.109487534E0
3.879782037E1,-5.530250072E-1,-1.260875016E-1,-1.109487534E0
3.881782037E1,-5.530250072E-1,-1.260875016E-1,-1.109487534E0
3.883782037E1,-5.530250072E-1,-1.260875016E-1,-1.109487534E0
3.885782037E1,-5.530250072E-1,-1.260875016E-1,-1.109487534E0
3.887782037E1,-5.530250072E-1,-1.260875016E-1,-1.109487534E0
3.889782037E1,-5.530250072E-1,-1.260875016E-1,-1.109487534E0
3.891782037E1,1.787499934E-1,7.369999588E-2,7.341125011E-1
3.893782037E1,1.787499934E-1,7.369999588E-2,7.341125011E-1
3.895782037E1,1.010625005E0,-1.315875053E-1,1.587437510E0
3.897782037E1,1.010625005E0,-1.315875053E-1,1.587437510E0
3.899782037E1,1.010625005E0,-1.315875053E-1,1.587437510E0
3.901782037E1,8.654249907E-1,1.768250018E-1,1.150462508E0
3.903782037E1,8.654249907E-1,1.768250018E-1,1.150462508E0
3.905782037E1,8.654249907E-1,1.768250018E-1,1.150462508E0
3.907782037E1,8.654249907E-1,1.768250018E-1,1.150462508E0
3.909782037E1,8.654249907E-1,1.768250018E-1,1.150462508E0
3.911782037E1,5.003625154E-1,1.471250057E-1,8.674874902E-1
3.913782037E1,5.003625154E-1,1.471250057E-1,8.674874902E-1
3.915782037E1,-6.379999965E-2,3.532375097E-1,2.414499968E-1
3.917782037E1,-6.379999965E-2,3.532375097E-1,2.414499968E-1
3.919782037E1,-6.379999965E-2,3.532375097E-1,2.414499968E-1
3.921782037E1,-6.379999965E-2,3.532375097E-1,2.414499968E-1
3.923782037E1,-6.379999965E-2,3.532375097E-1,2.414499968E-1
3.925782037E1,-4.916999936E-1,4.355999827E-1,-4.721750021E-1
3.927782037E1,-4.916999936E-1,4.355999827E-1,-4.721750021E-1
3.929782037E1,-4.916999936E-1,4.355999827E-1,-4.721750021E-1
3.931782037E1,-4.916999936E-1,4.355999827E-1,-4.721750021E-1
3.933782037E1,-4.916999936E-1,4.355999827E-1,-4.721750021E-1
3.935782037E1,-4.916999936E-1,4.355999827E-1,-4.721750021E-1
3.937782037E1,-4.916999936E-1,4.355999827E-1,-4.721750021E-1
3.939782037E1,7.715125084E-1,-2.063187599E0,1.507687449E0
3.941782037E1,7.715125084E-1,-2.063187599E0,1.507687449E0
3.943782037E1,7.715125084E-1,-2.063187599E0,1.507687449E0
3.945782037E1,7.715125084E-1,-2.063187599E0,1.507687449E0
3.947782037E1,7.715125084E-1,-2.063187599E0,1.507687449E0
3.949782037E1,3.374249935E-1,-1.367712498E0,1.031387448E0
3.951782037E1,3.374249935E-1,-1.367712498E0,1.031387448E0
3.953782037E1,3.374249935E-1,-1.367712498E0,1.031387448E0
3.955782037E1,3.374249935E-1,-1.367712498E0,1.031387448E0
3.957782037E1,3.374249935E-1,-1.367712498E0,1.031387448E0
3.959782037E1,3.374249935E-1,-1.367712498E0,1.031387448E0
3.961782037E1,3.374249935E-1,-1.367712498E0,1.031387448E0
3.963782037E1,-1.019837499E0,3.130874932E-1,-9.473749995E-2
3.965782037E1,-1.019837499E0,3.130874932E-1,-9.473749995E-2
3.967782037E1,-1.019837499E0,3.130874932E-1,-9.473749995E-2
3.969782037E1,-1.019837499E0,3.130874932E-1,-9.473749995E-2
3.971782037E1,-1.019837499E0,3.130874932E-1,-9.473749995E-2
3.973782037E1,-1.019837499E0,3.130874932E-1,-9.473749995E-2
3.975782037E1,-1.019837499E0,3.130874932E-1,-9.473749995E-2
3.977782037E1,-1.019837499E0,3.130874932E-1,-9.473749995E-2
3.979782037E1,-1.019837499E0,3.130874932E-1,-9.473749995E-2
3.981782037E1,-1.019837499E0,3.130874932E-1,-9.473749995E-2
3.983782037E1,3.363249898E-1,1.835625023E-1,-9.316999912E-1
3.985782037E1,3.363249898E-1,1.835625023E-1,-9.316999912E-1
3.987782037E1,7.372750044E-1,1.608750038E-2,-8.130375147E-1
3.989782037E1,7.372750044E-1,1.608750038E-2,-8.130375147E-1
3.991782037E1,7.372750044E-1,1.608750038E-2,-8.130375147E-1
3.993782037E1,7.372750044E-1,1.608750038E-2,-8.130375147E-1
3.995782037E1,7.372750044E-1,1.608750038E-2,-8.130375147E-1
3.997782037E1,-2.875125110E-1,-8.552499861E-2,-2.688125074E-1
3.999782037E1,-2.875125110E-1,-8.552499861E-2,-2.688125074E-1
4.001782037E1,-2.875125110E-1,-8.552499861E-2,-2.688125074E-1
4.003782037E1,-2.875125110E-1,-8.552499861E-2,-2.688125074E-1
4.005782037E1,-2.875125110E-1,-8.552499861E-2,-2.688125074E-1
4.007782037E1,-2.121624947E-1,-3.348124921E-1,-5.946875215E-1
4.009782037E1,-2.121624947E-1,-3.348124921E-1,-5.946875215E-1
4.011782037E1,-2.121624947E-1,-3.348124921E-1,-5.946875215E-1
4.013782037E1,-2.121624947E-1,-3.348124921E-1,-5.946875215E-1
4.015782037E1,-2.121624947E-1,-3.348124921E-1,-5.946875215E-1
4.017782037E1,-1.677500010E-1,-5.543999672E-1,-1.194049954E0
4.019782037E1,-1.677500010E-1,-5.543999672E-1,-1.194049954E0
4.021782037E1,-4.382124841E-1,-2.010249943E-1,-2.044349909E0
