Time (s),ax,ay,az,gx,gy,gz
5.01782037,2.683950186,-15.78795052,1.125,-0.2561624944,1.149087548,-0.9987999797
5.03782037,2.683950186,-15.78795052,1.125,-0.2561624944,1.149087548,-0.9987999797
5.05782037,2.683950186,-15.78795052,1.125,-0.2561624944,1.149087548,-0.9987999797
5.07782037,2.683950186,-15.78795052,1.125,-0.2561624944,1.149087548,-0.9987999797
5.09782037,2.683950186,-15.78795052,1.125,-0.2561624944,1.149087548,-0.9987999797
5.11782037,2.58795023,-12.22605038,-1.746000051,-1.134237528,0.8801375031,-0.6732000113
5.13782037,2.58795023,-12.22605038,-1.746000051,-1.134237528,0.8801375031,-0.6732000113
5.15782037,-0.9730500579,-14.63895035,4.782000065,-0.9703375101,0.5384500027,-0.4259749949
5.17782037,-0.9730500579,-14.63895035,4.782000065,-0.9703375101,0.5384500027,-0.4259749949
5.19782037,-0.9730500579,-14.63895035,4.782000065,-0.9703375101,0.5384500027,-0.4259749949
5.21782037,0.616050005,-13.48995018,3.270000219,0.03327500075,-0.3815625012,0.1780624986
5.23782037,0.616050005,-13.48995018,3.270000219,0.03327500075,-0.3815625012,0.1780624986
5.25782037,2.607000113,-10.00500011,-1.383000016,0.05761250108,-0.5880874991,0.1313125044
5.27782037,2.607000113,-10.00500011,-1.383000016,0.05761250108,-0.5880874991,0.1313125044
5.29782037,2.607000113,-10.00500011,-1.383000016,0.05761250108,-0.5880874991,0.1313125044
5.31782037,2.607000113,-10.00500011,-1.383000016,0.05761250108,-0.5880874991,0.1313125044
5.33782037,2.607000113,-10.00500011,-1.383000016,0.05761250108,-0.5880874991,0.1313125044
5.35782037,5.881950378,-4.948950291,0.1870500147,0.6595875025,-0.8193625212,-0.3462249935
5.37782037,5.881950378,-4.948950291,0.1870500147,0.6595875025,-0.8193625212,-0.3462249935
5.39782037,5.881950378,-4.948950291,0.1870500147,0.6595875025,-0.8193625212,-0.3462249935
5.41782037,5.881950378,-4.948950291,0.1870500147,0.6595875025,-0.8193625212,-0.3462249935
5.43782037,5.881950378,-4.948950291,0.1870500147,0.6595875025,-0.8193625212,-0.3462249935
5.45782037,0.5770500302,-5.446950436,0.6270000339,-0.1819124967,-0.1567499936,-1.491874933
5.47782037,0.5770500302,-5.446950436,0.6270000339,-0.1819124967,-0.1567499936,-1.491874933
5.49782037,0.3480000198,-3.703950167,-0.4060500264,0.6191624999,-1.304462552,-0.9294999838
5.51782037,0.3480000198,-3.703950167,-0.4060500264,0.6191624999,-1.304462552,-0.9294999838
5.53782037,0.3480000198,-3.703950167,-0.4060500264,0.6191624999,-1.304462552,-0.9294999838
5.55782037,1.458000064,-4.048950195,-2.473950148,0.5205749869,-1.646700025,-0.6762250066
5.57782037,1.458000064,-4.048950195,-2.473950148,0.5205749869,-1.646700025,-0.6762250066
5.59782037,1.458000064,-4.048950195,-2.473950148,0.5205749869,-1.646700025,-0.6762250066
5.61782037,1.458000064,-4.048950195,-2.473950148,0.5205749869,-1.646700025,-0.6762250066
5.63782037,1.458000064,-4.048950195,-2.473950148,0.5205749869,-1.646700025,-0.6762250066
5.65782037,1.458000064,-4.048950195,-2.473950148,0.5205749869,-1.646700025,-0.6762250066
5.67782037,1.458000064,-4.048950195,-2.473950148,0.5205749869,-1.646700025,-0.6762250066
5.69782037,4.656000137,-10.92405033,-0.07995000482,-1.932150006,-0.746900022,0.2440624982
5.71782037,4.656000137,-10.92405033,-0.07995000482,-1.932150006,-0.746900022,0.2440624982
5.73782037,2.338950157,-10.94295025,3.231000185,-1.642437458,0.1430000067,-0.3301374912
5.75782037,2.338950157,-10.94295025,3.231000185,-1.642437458,0.1430000067,-0.3301374912
5.77782037,2.338950157,-10.94295025,3.231000185,-1.642437458,0.1430000067,-0.3301374912
5.79782037,1.95600009,-11.28795052,2.350950003,-0.3459500074,0.3470500112,0.073012501
5.81782037,1.95600009,-11.28795052,2.350950003,-0.3459500074,0.3470500112,0.073012501
5.83782037,3.603000164,-8.146950722,-1.785000086,0.627412498,0.5202999711,0.1467124969
5.85782037,3.603000164,-8.146950722,-1.785000086,0.627412498,0.5202999711,0.1467124969
5.87782037,3.603000164,-8.146950722,-1.785000086,0.627412498,0.5202999711,0.1467124969
5.89782037,3.603000164,-8.146950722,-1.785000086,0.627412498,0.5202999711,0.1467124969
5.91782037,3.603000164,-8.146950722,-1.785000086,0.627412498,0.5202999711,0.1467124969
5.93782037,2.377050161,-7.936050415,-0.07995000482,0.9821624756,0.683924973,0.007562499959
5.95782037,2.377050161,-7.936050415,-0.07995000482,0.9821624756,0.683924973,0.007562499959
5.97782037,2.377050161,-7.936050415,-0.07995000482,0.9821624756,0.683924973,0.007562499959
5.99782037,2.377050161,-7.936050415,-0.07995000482,0.9821624756,0.683924973,0.007562499959
6.01782037,2.377050161,-7.936050415,-0.07995000482,0.9821624756,0.683924973,0.007562499959
6.03782037,3.12405014,-10.04295063,-0.3100500107,0.5308874846,0.06393750012,0.02213750035
6.05782037,3.12405014,-10.04295063,-0.3100500107,0.5308874846,0.06393750012,0.02213750035
6.07782037,1.993950129,-11.55600071,0.01395000052,-0.3778499961,0.2631750107,-0.06682500243
6.09782037,1.993950129,-11.55600071,0.01395000052,-0.3778499961,0.2631750107,-0.06682500243
6.11782037,1.993950129,-11.55600071,0.01395000052,-0.3778499961,0.2631750107,-0.06682500243
6.13782037,1.993950129,-11.55600071,0.01395000052,-0.3778499961,0.2631750107,-0.06682500243
6.15782037,1.993950129,-11.55600071,0.01395000052,-0.3778499961,0.2631750107,-0.06682500243
6.17782037,3.316050053,-13.47105026,0.8569500446,0.1948374957,-0.4591124952,0.3117125034
6.19782037,3.316050053,-13.47105026,0.8569500446,0.1948374957,-0.4591124952,0.3117125034
6.21782037,3.316050053,-13.47105026,0.8569500446,0.1948374957,-0.4591124952,0.3117125034
6.23782037,3.316050053,-13.47105026,0.8569500446,0.1948374957,-0.4591124952,0.3117125034
6.25782037,3.316050053,-13.47105026,0.8569500446,0.1948374957,-0.4591124952,0.3117125034
6.27782037,3.142950058,-11.57505035,-8.008049965,-0.5202999711,0.2564375103,0.07369999588
6.29782037,3.142950058,-11.57505035,-8.008049965,-0.5202999711,0.2564375103,0.07369999588
6.31782037,5.977050304,-11.93895054,3.442050219,-0.9391250014,0.4999499917,0.07562500238
6.33782037,5.977050304,-11.93895054,3.442050219,-0.9391250014,0.4999499917,0.07562500238
6.35782037,5.977050304,-11.93895054,3.442050219,-0.9391250014,0.4999499917,0.07562500238
6.37782037,2.971050024,-11.67105103,4.207950115,0.3312374949,0.1215500012,-0.3720749915
6.39782037,2.971050024,-11.67105103,4.207950115,0.3312374949,0.1215500012,-0.3720749915
6.41782037,3.622050285,-10.23405075,-2.149049997,0.2281125039,-0.02144999988,-0.1926375031
6.43782037,3.622050285,-10.23405075,-2.149049997,0.2281125039,-0.02144999988,-0.1926375031
6.45782037,3.622050285,-10.23405075,-2.149049997,0.2281125039,-0.02144999988,-0.1926375031
6.47782037,3.622050285,-10.23405075,-2.149049997,0.2281125039,-0.02144999988,-0.1926375031
6.49782037,3.622050285,-10.23405075,-2.149049997,0.2281125039,-0.02144999988,-0.1926375031
6.51782037,2.644950151,-6.748950481,0.07200000435,0.9871125221,-0.6978124976,-0.2343000025
6.53782037,2.644950151,-6.748950481,0.07200000435,0.9871125221,-0.6978124976,-0.2343000025
6.55782037,2.644950151,-6.748950481,0.07200000435,0.9871125221,-0.6978124976,-0.2343000025
6.57782037,2.644950151,-6.748950481,0.07200000435,0.9871125221,-0.6978124976,-0.2343000025
6.59782037,2.644950151,-6.748950481,0.07200000435,0.9871125221,-0.6978124976,-0.2343000025
6.61782037,-0.09195000678,-5.542950153,-0.1189500093,-0.2847625017,-0.6480374932,0.2755500078
6.63782037,-0.09195000678,-5.542950153,-0.1189500093,-0.2847625017,-0.6480374932,0.2755500078
6.65782037,-0.6660000086,-2.326050043,-0.4249500334,-0.2226125002,-1.074699998,0.5321249962
6.67782037,-0.6660000086,-2.326050043,-0.4249500334,-0.2226125002,-1.074699998,0.5321249962
6.69782037,-0.6660000086,-2.326050043,-0.4249500334,-0.2226125002,-1.074699998,0.5321249962
6.71782037,-0.6660000086,-2.326050043,-0.4249500334,-0.2226125002,-1.074699998,0.5321249962
6.73782037,-0.6660000086,-2.326050043,-0.4249500334,-0.2226125002,-1.074699998,0.5321249962
6.75782037,5.191950321,-10.40700054,6.658950329,-0.7002875209,-1.065899968,0.2758249938
6.77782037,5.191950321,-10.40700054,6.658950329,-0.7002875209,-1.065899968,0.2758249938
6.79782037,8.103000641,-26.29995155,1.834050059,1.002650023,-0.7851250172,-0.6242499948
6.81782037,8.103000641,-26.29995155,1.834050059,1.002650023,-0.7851250172,-0.6242499948
6.83782037,8.103000641,-26.29995155,1.834050059,1.002650023,-0.7851250172,-0.6242499948
6.85782037,5.958000183,-3.742950201,0.3970500231,1.100824952,-0.1241625026,-0.5175499916
6.87782037,5.958000183,-3.742950201,0.3970500231,1.100824952,-0.1241625026,-0.5175499916
6.89782037,5.230950356,-11.11500072,1.009950042,0.6256250143,0.9956374764,-1.663200021
6.91782037,5.230950356,-11.11500072,1.009950042,0.6256250143,0.9956374764,-1.663200021
6.93782037,5.230950356,-11.11500072,1.009950042,0.6256250143,0.9956374764,-1.663200021
6.95782037,5.230950356,-11.11500072,1.009950042,0.6256250143,0.9956374764,-1.663200021
6.97782037,5.230950356,-11.11500072,1.009950042,0.6256250143,0.9956374764,-1.663200021
6.99782037,5.230950356,-11.11500072,1.009950042,0.6256250143,0.9956374764,-1.663200021
7.01782037,5.230950356,-11.11500072,1.009950042,0.6256250143,0.9956374764,-1.663200021
7.03782037,5.230950356,-11.11500072,1.009950042,0.6256250143,0.9956374764,-1.663200021
7.05782037,5.230950356,-11.11500072,1.009950042,0.6256250143,0.9956374764,-1.663200021
7.07782037,5.230950356,-11.11500072,1.009950042,0.6256250143,0.9956374764,-1.663200021
7.09782037,2.66505003,-7.458000183,-0.3100500107,-0.6705874801,1.077450037,0.03286249936
7.11782037,2.66505003,-7.458000183,-0.3100500107,-0.6705874801,1.077450037,0.03286249936
7.13782037,5.058000088,-10.08105087,-0.4830000103,-0.884537518,0.1897500008,0.9037874937
7.15782037,5.058000088,-10.08105087,-0.4830000103,-0.884537518,0.1897500008,0.9037874937
7.17782037,5.058000088,-10.08105087,-0.4830000103,-0.884537518,0.1897500008,0.9037874937
7.19782037,4.06305027,-11.5360508,0.9529500604,-0.6634374857,0.04702499881,0.4717625082
7.21782037,4.06305027,-11.5360508,0.9529500604,-0.6634374857,0.04702499881,0.4717625082
7.23782037,4.752000332,-12.05295086,1.834050059,-0.5218124986,0.4229499996,-0.1992374957
7.25782037,4.752000332,-12.05295086,1.834050059,-0.5218124986,0.4229499996,-0.1992374957
7.27782037,4.752000332,-12.05295086,1.834050059,-0.5218124986,0.4229499996,-0.1992374957
7.29782037,4.752000332,-12.05295086,1.834050059,-0.5218124986,0.4229499996,-0.1992374957
7.31782037,4.752000332,-12.05295086,1.834050059,-0.5218124986,0.4229499996,-0.1992374957
7.33782037,3.948000193,-16.47705078,-1.114050031,-0.2495625019,0.2905375063,-0.07878749818
7.35782037,3.948000193,-16.47705078,-1.114050031,-0.2495625019,0.2905375063,-0.07878749818
7.37782037,3.948000193,-16.47705078,-1.114050031,-0.2495625019,0.2905375063,-0.07878749818
7.39782037,3.948000193,-16.47705078,-1.114050031,-0.2495625019,0.2905375063,-0.07878749818
7.41782037,3.948000193,-16.47705078,-1.114050031,-0.2495625019,0.2905375063,-0.07878749818
7.43782037,5.689950466,-10.67505074,3.556950092,-1.31477499,0.408374995,0.498849988
7.45782037,5.689950466,-10.67505074,3.556950092,-1.31477499,0.408374995,0.498849988
7.47782037,3.009000063,-9.391950607,7.19505024,-0.04592499882,0.073012501,0.05293750018
7.49782037,3.009000063,-9.391950607,7.19505024,-0.04592499882,0.073012501,0.05293750018
7.51782037,3.009000063,-9.391950607,7.19505024,-0.04592499882,0.073012501,0.05293750018
7.53782037,3.009000063,-9.391950607,7.19505024,-0.04592499882,0.073012501,0.05293750018
7.55782037,3.009000063,-9.391950607,7.19505024,-0.04592499882,0.073012501,0.05293750018
7.57782037,3.009000063,-9.391950607,7.19505024,-0.04592499882,0.073012501,0.05293750018
7.59782037,3.009000063,-9.391950607,7.19505024,-0.04592499882,0.073012501,0.05293750018
7.61782037,3.544950247,-7.534050465,-1.248000026,0.709087491,-0.3222999871,-0.2142249942
7.63782037,3.544950247,-7.534050465,-1.248000026,0.709087491,-0.3222999871,-0.2142249942
7.65782037,3.544950247,-7.534050465,-1.248000026,0.709087491,-0.3222999871,-0.2142249942
7.67782037,1.744950056,-6.901950359,-0.4630500078,2.460287571,-1.459149957,0.1414874941
7.69782037,1.744950056,-6.901950359,-0.4630500078,2.460287571,-1.459149957,0.1414874941
7.71782037,-0.7810500264,-5.791950226,0.5700000525,0.06861250103,-0.6041749716,0.4456374943
7.73782037,-0.7810500264,-5.791950226,0.5700000525,0.06861250103,-0.6041749716,0.4456374943
7.75782037,-0.7810500264,-5.791950226,0.5700000525,0.06861250103,-0.6041749716,0.4456374943
7.77782037,-0.7810500264,-5.791950226,0.5700000525,0.06861250103,-0.6041749716,0.4456374943
7.79782037,-0.7810500264,-5.791950226,0.5700000525,0.06861250103,-0.6041749716,0.4456374943
7.81782037,1.95600009,-1.597950101,-1.324950099,0.06861250103,-0.6041749716,0.4456374943
7.83782037,1.95600009,-1.597950101,-1.324950099,0.06861250103,-0.6041749716,0.4456374943
7.85782037,7.891950607,-16.80195045,0.07200000435,0.06861250103,-0.6041749716,0.4456374943
7.85782037,7.891950607,-16.80195045,0.07200000435,0.06861250103,-0.6041749716,0.4456374943
7.89782037,7.891950607,-16.80195045,0.07200000435,0.06861250103,-0.6041749716,0.4456374943
7.91782037,7.969050407,-20.15400124,-1.842000127,-0.494312495,-0.06503749639,-1.259087443
7.93782037,7.969050407,-20.15400124,-1.842000127,-0.494312495,-0.06503749639,-1.259087443
7.95782037,6.322050095,-5.101950169,1.048050046,-0.339212507,0.4068624973,-1.124199986
7.97782037,6.322050095,-5.101950169,1.048050046,-0.339212507,0.4068624973,-1.124199986
7.99782037,6.322050095,-5.101950169,1.048050046,-0.339212507,0.4068624973,-1.124199986
8.01782037,6.322050095,-5.101950169,1.048050046,-0.339212507,0.4068624973,-1.124199986
8.03782037,6.322050095,-5.101950169,1.048050046,-0.339212507,0.4068624973,-1.124199986
8.05782037,1.55400002,-7.840950489,2.33100009,-0.339212507,0.4068624973,-1.124199986
8.07782037,1.55400002,-7.840950489,2.33100009,-0.339212507,0.4068624973,-1.124199986
8.09782037,1.55400002,-7.840950489,2.33100009,-0.339212507,0.4068624973,-1.124199986
8.11782037,1.55400002,-7.840950489,2.33100009,-0.339212507,0.4068624973,-1.124199986
8.13782037,1.55400002,-7.840950489,2.33100009,-0.339212507,0.4068624973,-1.124199986
8.15782037,2.397000074,-7.783050537,0.109950006,0.1465750039,0.7111499906,0.5432624817
8.17782037,2.397000074,-7.783050537,0.109950006,0.1465750039,0.7111499906,0.5432624817
8.19782037,3.277050257,-8.281050682,0.5700000525,0.1498750001,0.2916375101,0.7672500014
8.21782037,3.277050257,-8.281050682,0.5700000525,0.1498750001,0.2916375101,0.7672500014
8.23782037,3.277050257,-8.281050682,0.5700000525,0.1498750001,0.2916375101,0.7672500014
8.25782037,5.287950039,-10.34895039,0.4549500346,-0.06173750013,-0.1703625023,0.8555250168
8.27782037,5.287950039,-10.34895039,0.4549500346,-0.06173750013,-0.1703625023,0.8555250168
8.29782037,3.736950159,-10.63605022,1.35495007,-0.6114624739,0.2932874858,0.154687494
8.31782037,3.736950159,-10.63605022,1.35495007,-0.6114624739,0.2932874858,0.154687494
8.33782037,2.205000162,-10.67505074,0.4549500346,-0.6050000191,0.5044875145,-0.1696749926
8.35782037,2.205000162,-10.67505074,0.4549500346,-0.6050000191,0.5044875145,-0.1696749926
8.37782037,2.205000162,-10.67505074,0.4549500346,-0.6050000191,0.5044875145,-0.1696749926
8.39782037,3.640950203,-15.67305088,-3.240000248,-0.05596249923,0.09171249717,0.02653750032
8.41782037,3.640950203,-15.67305088,-3.240000248,-0.05596249923,0.09171249717,0.02653750032
8.43782037,3.640950203,-15.67305088,-3.240000248,-0.05596249923,0.09171249717,0.02653750032
8.45782037,3.640950203,-15.67305088,-3.240000248,-0.05596249923,0.09171249717,0.02653750032
8.47782037,3.640950203,-15.67305088,-3.240000248,-0.05596249923,0.09171249717,0.02653750032
8.49782037,3.430950165,-12.39795017,-8.677950859,-0.5161749721,0.04001250118,0.1388749927
8.51782037,3.430950165,-12.39795017,-8.677950859,-0.5161749721,0.04001250118,0.1388749927
8.53782037,5.479950428,-10.84695053,7.080000401,-1.609300017,0.2613874972,0.3148750067
8.55782037,5.479950428,-10.84695053,7.080000401,-1.609300017,0.2613874972,0.3148750067
8.57782037,5.479950428,-10.84695053,7.080000401,-1.609300017,0.2613874972,0.3148750067
8.59782037,5.479950428,-10.84695053,7.080000401,-1.609300017,0.2613874972,0.3148750067
8.61782037,5.479950428,-10.84695053,7.080000401,-1.609300017,0.2613874972,0.3148750067
8.63782037,2.530950069,-10.56000042,-8.812050819,1.088037491,-0.5142499804,-0.2155999988
8.65782037,2.530950069,-10.56000042,-8.812050819,1.088037491,-0.5142499804,-0.2155999988
8.67782037,0.9220500588,-8.473050117,2.772000074,0.02804999985,-0.07906249911,-0.3634124994
8.69782037,0.9220500588,-8.473050117,2.772000074,0.02804999985,-0.07906249911,-0.3634124994
8.71782037,0.9220500588,-8.473050117,2.772000074,0.02804999985,-0.07906249911,-0.3634124994
8.73782037,2.875050068,-6.270000458,-1.708050132,1.36413753,-1.185250044,0.1952500045
8.75782037,2.875050068,-6.270000458,-1.708050132,1.36413753,-1.185250044,0.1952500045
8.77782037,2.875050068,-6.270000458,-1.708050132,1.36413753,-1.185250044,0.1952500045
8.79782037,2.875050068,-6.270000458,-1.708050132,1.36413753,-1.185250044,0.1952500045
8.81782037,2.875050068,-6.270000458,-1.708050132,1.36413753,-1.185250044,0.1952500045
8.83782037,2.875050068,-6.270000458,-1.708050132,1.36413753,-1.185250044,0.1952500045
8.85782037,2.875050068,-6.270000458,-1.708050132,1.36413753,-1.185250044,0.1952500045
8.87782037,2.875050068,-6.270000458,-1.708050132,1.36413753,-1.185250044,0.1952500045
8.89782037,2.875050068,-6.270000458,-1.708050132,1.36413753,-1.185250044,0.1952500045
8.91782037,2.875050068,-6.270000458,-1.708050132,1.36413753,-1.185250044,0.1952500045
8.93782037,2.875050068,-6.270000458,-1.708050132,1.36413753,-1.185250044,0.1952500045
8.95782037,2.875050068,-6.270000458,-1.708050132,1.36413753,-1.185250044,0.1952500045
8.97782037,6.30300045,-8.644950867,4.054950237,-1.259775043,-0.6073374748,-0.3638249934
8.99782037,6.30300045,-8.644950867,4.054950237,-1.259775043,-0.6073374748,-0.3638249934
9.01782037,9.865050316,-29.8240509,-1.497000098,1.833699942,-0.7794874907,-1.092299938
9.03782037,9.865050316,-29.8240509,-1.497000098,1.833699942,-0.7794874907,-1.092299938
9.05782037,9.865050316,-29.8240509,-1.497000098,1.833699942,-0.7794874907,-1.092299938
9.07782037,4.254000187,-4.030050278,-1.191000104,1.681212544,-0.5119125247,-0.158950001
9.09782037,4.254000187,-4.030050278,-1.191000104,1.681212544,-0.5119125247,-0.158950001
9.11782037,4.924050331,-11.32605076,1.585050106,1.036887527,0.4295499921,-1.230350018
9.13782037,4.924050331,-11.32605076,1.585050106,1.036887527,0.4295499921,-1.230350018
9.15782037,4.924050331,-11.32605076,1.585050106,1.036887527,0.4295499921,-1.230350018
9.17782037,4.924050331,-11.32605076,1.585050106,1.036887527,0.4295499921,-1.230350018
9.19782037,4.924050331,-11.32605076,1.585050106,1.036887527,0.4295499921,-1.230350018
9.21782037,1.209000111,-6.136050224,1.450950027,0.5494499803,0.6737499833,-0.1381874979
9.23782037,1.209000111,-6.136050224,1.450950027,0.5494499803,0.6737499833,-0.1381874979
9.25782037,1.209000111,-6.136050224,1.450950027,0.5494499803,0.6737499833,-0.1381874979
9.27782037,1.209000111,-6.136050224,1.450950027,0.5494499803,0.6737499833,-0.1381874979
9.29782037,1.209000111,-6.136050224,1.450950027,0.5494499803,0.6737499833,-0.1381874979
9.31782037,2.185950041,-8.395950317,1.08705008,-1.55704999,1.181262493,-0.116187498
9.33782037,2.185950041,-8.395950317,1.08705008,-1.55704999,1.181262493,-0.116187498
9.35782037,3.583950281,-8.913000107,-0.1380000114,-1.291537523,0.2431000024,0.9794124961
9.37782037,3.583950281,-8.913000107,-0.1380000114,-1.291537523,0.2431000024,0.9794124961
9.39782037,3.583950281,-8.913000107,-0.1380000114,-1.291537523,0.2431000024,0.9794124961
9.41782037,3.583950281,-8.913000107,-0.1380000114,-1.291537523,0.2431000024,0.9794124961
9.43782037,3.583950281,-8.913000107,-0.1380000114,-1.291537523,0.2431000024,0.9794124961
9.45782037,3.69900012,-10.04295063,0.7609500289,-0.8975999951,0.4441249967,-0.1700875014
9.47782037,3.69900012,-10.04295063,0.7609500289,-0.8975999951,0.4441249967,-0.1700875014
9.49782037,3.603000164,-12.72405052,-1.038000107,-0.9684125185,0.7239375114,-0.3804624975
9.51782037,3.603000164,-12.72405052,-1.038000107,-0.9684125185,0.7239375114,-0.3804624975
9.53782037,3.603000164,-12.72405052,-1.038000107,-0.9684125185,0.7239375114,-0.3804624975
9.55782037,3.162000179,-14.37105083,0.5509500504,-0.6597250104,0.5788750052,-0.2340250015
9.57782037,3.162000179,-14.37105083,0.5509500504,-0.6597250104,0.5788750052,-0.2340250015
9.59782037,3.162000179,-14.37105083,0.5509500504,-0.6597250104,0.5788750052,-0.2340250015
9.61782037,3.162000179,-14.37105083,0.5509500504,-0.6597250104,0.5788750052,-0.2340250015
9.63782037,3.162000179,-14.37105083,0.5509500504,-0.6597250104,0.5788750052,-0.2340250015
9.65782037,3.162000179,-14.37105083,0.5509500504,-0.6597250104,0.5788750052,-0.2340250015
9.67782037,3.162000179,-14.37105083,0.5509500504,-0.6597250104,0.5788750052,-0.2340250015
9.69782037,3.162000179,-14.37105083,0.5509500504,-0.6597250104,0.5788750052,-0.2340250015
9.71782037,3.162000179,-14.37105083,0.5509500504,-0.6597250104,0.5788750052,-0.2340250015
9.73782037,3.162000179,-14.37105083,0.5509500504,-0.6597250104,0.5788750052,-0.2340250015
9.75782037,3.162000179,-14.37105083,0.5509500504,-0.6597250104,0.5788750052,-0.2340250015
9.77782037,3.162000179,-14.37105083,0.5509500504,-0.6597250104,0.5788750052,-0.2340250015
9.79782037,5.001000404,-8.146950722,3.117000103,1.353412509,-0.6903874874,-0.2987875044
9.81782037,5.001000404,-8.146950722,3.117000103,1.353412509,-0.6903874874,-0.2987875044
9.83782037,3.334950209,-8.3770504,-2.512050152,0.4284499884,0.03313750029,-0.7548750043
9.85782037,3.334950209,-8.3770504,-2.512050152,0.4284499884,0.03313750029,-0.7548750043
9.87782037,3.334950209,-8.3770504,-2.512050152,0.4284499884,0.03313750029,-0.7548750043
9.89782037,2.550000191,-10.04295063,3.901950121,0.4827624857,0.1295250058,-1.054212451
9.91782037,2.550000191,-10.04295063,3.901950121,0.4827624857,0.1295250058,-1.054212451
9.93782037,2.550000191,-10.04295063,3.901950121,0.4827624857,0.1295250058,-1.054212451
9.95782037,2.550000191,-10.04295063,3.901950121,0.4827624857,0.1295250058,-1.054212451
9.97782037,2.550000191,-10.04295063,3.901950121,0.4827624857,0.1295250058,-1.054212451
9.99782037,2.550000191,-10.04295063,3.901950121,0.4827624857,0.1295250058,-1.054212451
10.01782037,2.550000191,-10.04295063,3.901950121,0.4827624857,0.1295250058,-1.054212451
10.03782037,0.1750500053,-4.011000156,0.2059500068,-1.02987504,-0.3888500035,0.6155874729
10.05782037,0.1750500053,-4.011000156,0.2059500068,-1.02987504,-0.3888500035,0.6155874729
10.07782037,0.1750500053,-4.011000156,0.2059500068,-1.02987504,-0.3888500035,0.6155874729
10.09782037,0.1750500053,-4.011000156,0.2059500068,-1.02987504,-0.3888500035,0.6155874729
10.11782037,0.1750500053,-4.011000156,0.2059500068,-1.02987504,-0.3888500035,0.6155874729
10.13782037,0.9799500704,-3.321000099,-3.144000053,-0.4092000127,-0.5185124874,0.3166624904
10.15782037,0.9799500704,-3.321000099,-3.144000053,-0.4092000127,-0.5185124874,0.3166624904
10.17782037,12.583951,-22.08795166,-12.06795025,-1.572862506,-0.1601874977,-1.231449962
10.19782037,12.583951,-22.08795166,-12.06795025,-1.572862506,-0.1601874977,-1.231449962
10.21782037,4.157999992,-20.23005104,9.129000664,0.1768250018,-0.3170749843,-0.2410375029
10.21782037,4.157999992,-20.23005104,9.129000664,0.1768250018,-0.3170749843,-0.2410375029
10.25782037,4.157999992,-20.23005104,9.129000664,0.1768250018,-0.3170749843,-0.2410375029
10.27782037,5.997000217,-8.893950462,2.293050051,-0.9510874748,0.4553999901,-1.283562541
10.29782037,5.997000217,-8.893950462,2.293050051,-0.9510874748,0.4553999901,-1.283562541
10.31782037,5.997000217,-8.893950462,2.293050051,-0.9510874748,0.4553999901,-1.283562541
10.33782037,5.997000217,-8.893950462,2.293050051,-0.9510874748,0.4553999901,-1.283562541
10.35782037,5.997000217,-8.893950462,2.293050051,-0.9510874748,0.4553999901,-1.283562541
10.37782037,1.055999994,-7.228050232,1.75695014,0.464612484,0.5179625154,0.07919999957
10.39782037,1.055999994,-7.228050232,1.75695014,0.464612484,0.5179625154,0.07919999957
10.41782037,1.055999994,-7.228050232,1.75695014,0.464612484,0.5179625154,0.07919999957
10.43782037,1.055999994,-7.228050232,1.75695014,0.464612484,0.5179625154,0.07919999957
10.45782037,1.055999994,-7.228050232,1.75695014,0.464612484,0.5179625154,0.07919999957
10.47782037,1.055999994,-7.228050232,1.75695014,0.464612484,0.5179625154,0.07919999957
10.49782037,1.055999994,-7.228050232,1.75695014,0.464612484,0.5179625154,0.07919999957
10.51782037,5.077050209,-8.932050705,1.009950042,0.8728500009,-0.6799374819,1.104400039
10.53782037,5.077050209,-8.932050705,1.009950042,0.8728500009,-0.6799374819,1.104400039
10.55782037,5.077050209,-8.932050705,1.009950042,0.8728500009,-0.6799374819,1.104400039
10.57782037,5.077050209,-8.932050705,1.009950042,0.8728500009,-0.6799374819,1.104400039
10.59782037,5.077050209,-8.932050705,1.009950042,0.8728500009,-0.6799374819,1.104400039
10.61782037,3.201000214,-9.334050179,0.7990500331,-0.1193500012,-0.2079000026,-0.4602124989
10.63782037,3.201000214,-9.334050179,0.7990500331,-0.1193500012,-0.2079000026,-0.4602124989
10.65782037,3.201000214,-9.334050179,0.7990500331,-0.1193500012,-0.2079000026,-0.4602124989
10.67782037,3.201000214,-9.334050179,0.7990500331,-0.1193500012,-0.2079000026,-0.4602124989
10.69782037,3.201000214,-9.334050179,0.7990500331,-0.1193500012,-0.2079000026,-0.4602124989
10.71782037,1.036949992,-12.41700077,1.564950109,0.3539249897,-0.6613749862,0.08855000138
10.73782037,1.036949992,-12.41700077,1.564950109,0.3539249897,-0.6613749862,0.08855000138
10.75782037,2.491950035,-16.26600075,0.4740000367,0.5825874805,-1.032762527,0.7416750193
10.77782037,2.491950035,-16.26600075,0.4740000367,0.5825874805,-1.032762527,0.7416750193
10.79782037,2.491950035,-16.26600075,0.4740000367,0.5825874805,-1.032762527,0.7416750193
10.81782037,2.491950035,-16.26600075,0.4740000367,0.5825874805,-1.032762527,0.7416750193
10.83782037,2.491950035,-16.26600075,0.4740000367,0.5825874805,-1.032762527,0.7416750193
10.85782037,3.316050053,-9.660000801,-3.622950077,-0.2479124963,-0.4632374942,0.8339374661
10.87782037,3.316050053,-9.660000801,-3.622950077,-0.2479124963,-0.4632374942,0.8339374661
10.89782037,4.942950249,-9.697950363,-1.593000054,-0.7459374666,-0.1754499972,0.4626874924
10.91782037,4.942950249,-9.697950363,-1.593000054,-0.7459374666,-0.1754499972,0.4626874924
10.93782037,4.942950249,-9.697950363,-1.593000054,-0.7459374666,-0.1754499972,0.4626874924
10.95782037,6.609000206,-9.009000778,9.340050697,-0.3390749991,-0.2858625054,-0.3878875077
10.97782037,6.609000206,-9.009000778,9.340050697,-0.3390749991,-0.2858625054,-0.3878875077
10.99782037,4.38795042,-8.452950478,4.054950237,0.6458374858,-1.004024982,-1.07525003
11.01782037,4.38795042,-8.452950478,4.054950237,0.6458374858,-1.004024982,-1.07525003
11.03782037,4.38795042,-8.452950478,4.054950237,0.6458374858,-1.004024982,-1.07525003
11.05782037,4.38795042,-8.452950478,4.054950237,0.6458374858,-1.004024982,-1.07525003
11.07782037,4.38795042,-8.452950478,4.054950237,0.6458374858,-1.004024982,-1.07525003
11.09782037,0.538950026,-8.740950584,2.829000235,0.6095374823,-1.334162474,-0.1798499972
11.11782037,0.538950026,-8.740950584,2.829000235,0.6095374823,-1.334162474,-0.1798499972
11.13782037,0.538950026,-8.740950584,2.829000235,0.6095374823,-1.334162474,-0.1798499972
11.15782037,0.538950026,-8.740950584,2.829000235,0.6095374823,-1.334162474,-0.1798499972
11.17782037,0.538950026,-8.740950584,2.829000235,0.6095374823,-1.334162474,-0.1798499972
11.19782037,0.2520000041,-6.768000126,1.680000067,1.134512544,-0.8457624912,0.5068249702
11.21782037,0.2520000041,-6.768000126,1.680000067,1.134512544,-0.8457624912,0.5068249702
11.23782037,0.2520000041,-6.768000126,1.680000067,1.134512544,-0.8457624912,0.5068249702
11.25782037,0.2520000041,-6.768000126,1.680000067,1.134512544,-0.8457624912,0.5068249702
11.27782037,0.2520000041,-6.768000126,1.680000067,1.134512544,-0.8457624912,0.5068249702
11.29782037,0.2520000041,-6.768000126,1.680000067,1.134512544,-0.8457624912,0.5068249702
11.31782037,0.2520000041,-6.768000126,1.680000067,1.134512544,-0.8457624912,0.5068249702
11.33782037,4.675050259,-7.917000294,-5.691000462,1.052012444,-0.03973750025,1.091750026
11.35782037,4.675050259,-7.917000294,-5.691000462,1.052012444,-0.03973750025,1.091750026
11.37782037,4.675050259,-7.917000294,-5.691000462,1.052012444,-0.03973750025,1.091750026
11.39782037,4.675050259,-7.917000294,-5.691000462,1.052012444,-0.03973750025,1.091750026
11.41782037,4.675050259,-7.917000294,-5.691000462,1.052012444,-0.03973750025,1.091750026
11.43782037,7.987950325,-13.58505058,-5.289000034,-1.663062453,-0.4005374908,-1.753674984
11.45782037,7.987950325,-13.58505058,-5.289000034,-1.663062453,-0.4005374908,-1.753674984
11.47782037,1.726050138,-12.36000061,0.6649500132,-0.498437494,-1.019974947,-1.701424956
11.49782037,1.726050138,-12.36000061,0.6649500132,-0.498437494,-1.019974947,-1.701424956
11.51782037,1.726050138,-12.36000061,0.6649500132,-0.498437494,-1.019974947,-1.701424956
11.53782037,1.726050138,-12.36000061,0.6649500132,-0.498437494,-1.019974947,-1.701424956
11.55782037,1.726050138,-12.36000061,0.6649500132,-0.498437494,-1.019974947,-1.701424956
11.57782037,1.726050138,-12.36000061,0.6649500132,-0.498437494,-1.019974947,-1.701424956
11.59782037,1.726050138,-12.36000061,0.6649500132,-0.498437494,-1.019974947,-1.701424956
11.61782037,1.726050138,-12.36000061,0.6649500132,-0.498437494,-1.019974947,-1.701424956
11.63782037,1.726050138,-12.36000061,0.6649500132,-0.498437494,-1.019974947,-1.701424956
11.65782037,1.726050138,-12.36000061,0.6649500132,-0.498437494,-1.019974947,-1.701424956
11.67782037,1.15200007,-8.893950462,2.887050152,2.046412468,-1.417899966,1.633774996
11.69782037,1.15200007,-8.893950462,2.887050152,2.046412468,-1.417899966,1.633774996
11.71782037,2.301000118,-9.29595089,1.738050103,1.799324989,-0.9833999872,2.046824932
11.73782037,2.301000118,-9.29595089,1.738050103,1.799324989,-0.9833999872,2.046824932
11.75782037,2.301000118,-9.29595089,1.738050103,1.799324989,-0.9833999872,2.046824932
11.77782037,2.875050068,-9.028050423,1.068000078,1.198174953,-1.33375001,1.115399957
11.79782037,2.875050068,-9.028050423,1.068000078,1.198174953,-1.33375001,1.115399957
11.81782037,2.434950113,-9.065999985,1.411950111,0.6869499683,-1.845662475,0.4420624971
11.83782037,2.434950113,-9.065999985,1.411950111,0.6869499683,-1.845662475,0.4420624971
11.85782037,2.434950113,-9.065999985,1.411950111,0.6869499683,-1.845662475,0.4420624971
11.87782037,2.434950113,-9.065999985,1.411950111,0.6869499683,-1.845662475,0.4420624971
11.89782037,2.434950113,-9.065999985,1.411950111,0.6869499683,-1.845662475,0.4420624971
11.91782037,0.3859500289,-9.946950912,0.3970500231,0.2329249978,-1.943837523,0.2947999835
11.93782037,0.3859500289,-9.946950912,0.3970500231,0.2329249978,-1.943837523,0.2947999835
11.95782037,2.530950069,-10.96200085,1.929000139,0.2329249978,-1.943837523,0.2947999835
11.95782037,2.530950069,-10.96200085,1.929000139,0.2329249978,-1.943837523,0.2947999835
11.99782037,2.530950069,-10.96200085,1.929000139,0.2329249978,-1.943837523,0.2947999835
12.01782037,4.579950333,-11.59395027,0.5509500504,-0.03176249936,-1.64161253,0.39517501
12.03782037,4.579950333,-11.59395027,0.5509500504,-0.03176249936,-1.64161253,0.39517501
12.05782037,5.689950466,-10.00500011,-3.469950199,0.01773750037,-1.860100031,0.01457499992
12.07782037,5.689950466,-10.00500011,-3.469950199,0.01773750037,-1.860100031,0.01457499992
12.09782037,5.689950466,-10.00500011,-3.469950199,0.01773750037,-1.860100031,0.01457499992
12.11782037,5.689950466,-10.00500011,-3.469950199,0.01773750037,-1.860100031,0.01457499992
12.13782037,5.689950466,-10.00500011,-3.469950199,0.01773750037,-1.860100031,0.01457499992
12.15782037,7.738950253,-10.61700058,1.776000142,0.2660624981,-3.051949978,-0.9895874858
12.17782037,7.738950253,-10.61700058,1.776000142,0.2660624981,-3.051949978,-0.9895874858
12.19782037,7.738950253,-10.61700058,1.776000142,0.2660624981,-3.051949978,-0.9895874858
12.21782037,7.738950253,-10.61700058,1.776000142,0.2660624981,-3.051949978,-0.9895874858
12.23782037,7.738950253,-10.61700058,1.776000142,0.2660624981,-3.051949978,-0.9895874858
12.25782037,2.35800004,-16.91700172,3.997050285,0.9050250053,-2.131112576,-0.8657000065
12.27782037,2.35800004,-16.91700172,3.997050285,0.9050250053,-2.131112576,-0.8657000065
12.29782037,2.35800004,-16.91700172,3.997050285,0.9050250053,-2.131112576,-0.8657000065
12.31782037,2.35800004,-16.91700172,3.997050285,0.9050250053,-2.131112576,-0.8657000065
12.33782037,2.35800004,-16.91700172,3.997050285,0.9050250053,-2.131112576,-0.8657000065
12.35782037,2.35800004,-16.91700172,3.997050285,0.9050250053,-2.131112576,-0.8657000065
12.37782037,2.35800004,-16.91700172,3.997050285,0.9050250053,-2.131112576,-0.8657000065
12.39782037,2.550000191,-10.21500015,3.193050146,0.507237494,1.354787469,1.028224945
12.41782037,2.550000191,-10.21500015,3.193050146,0.507237494,1.354787469,1.028224945
12.43782037,7.107000351,-10.17705059,1.336050034,0.1608749926,1.375137448,0.8200500011
12.45782037,7.107000351,-10.17705059,1.336050034,0.1608749926,1.375137448,0.8200500011
12.47782037,7.107000351,-10.17705059,1.336050034,0.1608749926,1.375137448,0.8200500011
12.49782037,6.667050362,-9.697950363,0.4740000367,-0.03451250121,0.610637486,-0.356949985
12.51782037,6.667050362,-9.697950363,0.4740000367,-0.03451250121,0.610637486,-0.356949985
12.53782037,6.667050362,-9.697950363,0.4740000367,-0.03451250121,0.610637486,-0.356949985
12.55782037,6.667050362,-9.697950363,0.4740000367,-0.03451250121,0.610637486,-0.356949985
12.57782037,6.667050362,-9.697950363,0.4740000367,-0.03451250121,0.610637486,-0.356949985
12.59782037,6.667050362,-9.697950363,0.4740000367,-0.03451250121,0.610637486,-0.356949985
12.61782037,6.667050362,-9.697950363,0.4740000367,-0.03451250121,0.610637486,-0.356949985
12.63782037,2.511000156,-2.134050131,-0.3100500107,-0.3532375097,-0.5766749978,-1.145237446
12.65782037,2.511000156,-2.134050131,-0.3100500107,-0.3532375097,-0.5766749978,-1.145237446
12.67782037,2.511000156,-2.134050131,-0.3100500107,-0.3532375097,-0.5766749978,-1.145237446
12.69782037,2.511000156,-2.134050131,-0.3100500107,-0.3532375097,-0.5766749978,-1.145237446
12.71782037,2.511000156,-2.134050131,-0.3100500107,-0.3532375097,-0.5766749978,-1.145237446
12.73782037,7.777050495,-5.638950348,-10.36305046,-0.6473500133,-1.223062515,-0.4688749909
12.75782037,7.777050495,-5.638950348,-10.36305046,-0.6473500133,-1.223062515,-0.4688749909
12.77782037,4.197000027,-15.99795055,-6.706050396,1.15376246,-1.84662497,-1.790799975
12.79782037,4.197000027,-15.99795055,-6.706050396,1.15376246,-1.84662497,-1.790799975
12.81782037,4.197000027,-15.99795055,-6.706050396,1.15376246,-1.84662497,-1.790799975
12.83782037,3.603000164,-10.52205086,1.546050072,0.5872625113,-1.458462477,-0.2917749882
12.85782037,3.603000164,-10.52205086,1.546050072,0.5872625113,-1.458462477,-0.2917749882
12.87782037,2.491950035,-11.55600071,1.297050118,0.675537467,-1.045687437,0.2778874934
12.89782037,2.491950035,-11.55600071,1.297050118,0.675537467,-1.045687437,0.2778874934
12.91782037,2.128050089,-11.23005009,0.5509500504,0.4534749985,-0.6419875026,0.9784500003
12.93782037,2.128050089,-11.23005009,0.5509500504,0.4534749985,-0.6419875026,0.9784500003
12.95782037,2.128050089,-11.23005009,0.5509500504,0.4534749985,-0.6419875026,0.9784500003
12.97782037,5.077050209,-7.993950367,-0.06105000153,0.4806999862,-0.4431625009,1.080199957
12.99782037,5.077050209,-7.993950367,-0.06105000153,0.4806999862,-0.4431625009,1.080199957
13.01782037,5.077050209,-7.993950367,-0.06105000153,0.4806999862,-0.4431625009,1.080199957
13.03782037,5.077050209,-7.993950367,-0.06105000153,0.4806999862,-0.4431625009,1.080199957
13.05782037,5.077050209,-7.993950367,-0.06105000153,0.4806999862,-0.4431625009,1.080199957
13.07782037,3.967050076,-7.801950455,0.493050009,0.3540624976,-1.092987537,0.746900022
13.09782037,3.967050076,-7.801950455,0.493050009,0.3540624976,-1.092987537,0.746900022
13.11782037,3.967050076,-7.801950455,0.493050009,0.3540624976,-1.092987537,0.746900022
13.13782037,3.967050076,-7.801950455,0.493050009,0.3540624976,-1.092987537,0.746900022
13.15782037,3.967050076,-7.801950455,0.493050009,0.3540624976,-1.092987537,0.746900022
13.17782037,3.967050076,-7.801950455,0.493050009,0.3540624976,-1.092987537,0.746900022
13.19782037,3.967050076,-7.801950455,0.493050009,0.3540624976,-1.092987537,0.746900022
13.21782037,2.607000113,-9.12405014,1.431000113,0.8599249721,-2.101550102,-0.1743499935
13.23782037,2.607000113,-9.12405014,1.431000113,0.8599249721,-2.101550102,-0.1743499935
13.25782037,2.320050001,-9.411000252,0.2250000089,0.949575007,-1.568737507,0.2473624945
13.27782037,2.320050001,-9.411000252,0.2250000089,0.949575007,-1.568737507,0.2473624945
13.29782037,2.320050001,-9.411000252,0.2250000089,0.949575007,-1.568737507,0.2473624945
13.31782037,2.644950151,-10.54095078,-0.4630500078,0.6711375117,-1.292500019,0.6950625181
13.33782037,2.644950151,-10.54095078,-0.4630500078,0.6711375117,-1.292500019,0.6950625181
13.35782037,2.644950151,-10.54095078,-0.4630500078,0.6711375117,-1.292500019,0.6950625181
13.37782037,2.644950151,-10.54095078,-0.4630500078,0.6711375117,-1.292500019,0.6950625181
13.39782037,2.644950151,-10.54095078,-0.4630500078,0.6711375117,-1.292500019,0.6950625181
13.41782037,4.444950104,-16.15095139,1.564950109,0.201712504,-0.9538375139,0.8205999732
13.43782037,4.444950104,-16.15095139,1.564950109,0.201712504,-0.9538375139,0.8205999732
13.45782037,4.579950333,-15.32805061,-1.402050018,0.266887486,-0.7319124937,0.5464249849
13.47782037,4.579950333,-15.32805061,-1.402050018,0.266887486,-0.7319124937,0.5464249849
13.49782037,4.579950333,-15.32805061,-1.402050018,0.266887486,-0.7319124937,0.5464249849
13.51782037,4.579950333,-15.32805061,-1.402050018,0.266887486,-0.7319124937,0.5464249849
13.53782037,4.579950333,-15.32805061,-1.402050018,0.266887486,-0.7319124937,0.5464249849
13.55782037,6.552000523,-11.59395027,9.819000244,-0.03299999982,-0.9748749733,-0.1093124971
13.57782037,6.552000523,-11.59395027,9.819000244,-0.03299999982,-0.9748749733,-0.1093124971
13.59782037,6.552000523,-11.59395027,9.819000244,-0.03299999982,-0.9748749733,-0.1093124971
13.61782037,6.552000523,-11.59395027,9.819000244,-0.03299999982,-0.9748749733,-0.1093124971
13.63782037,6.552000523,-11.59395027,9.819000244,-0.03299999982,-0.9748749733,-0.1093124971
13.65782037,2.052000046,-9.583050728,-8.065950394,0.6456999779,0.7676625252,-0.3079999983
13.67782037,2.052000046,-9.583050728,-8.065950394,0.6456999779,0.7676625252,-0.3079999983
13.69782037,2.052000046,-9.583050728,-8.065950394,0.6456999779,0.7676625252,-0.3079999983
13.71782037,2.052000046,-9.583050728,-8.065950394,0.6456999779,0.7676625252,-0.3079999983
13.73782037,2.052000046,-9.583050728,-8.065950394,0.6456999779,0.7676625252,-0.3079999983
13.75782037,2.052000046,-9.583050728,-8.065950394,0.6456999779,0.7676625252,-0.3079999983
13.77782037,2.052000046,-9.583050728,-8.065950394,0.6456999779,0.7676625252,-0.3079999983
13.79782037,2.952000141,-7.534050465,0.6649500132,0.1751749963,2.206049919,-0.3723500073
13.81782037,2.952000141,-7.534050465,0.6649500132,0.1751749963,2.206049919,-0.3723500073
13.83782037,2.952000141,-7.534050465,0.6649500132,0.1751749963,2.206049919,-0.3723500073
13.85782037,2.952000141,-7.534050465,0.6649500132,0.1751749963,2.206049919,-0.3723500073
13.87782037,2.952000141,-7.534050465,0.6649500132,0.1751749963,2.206049919,-0.3723500073
13.89782037,0.2520000041,-0.5070000291,-0.2910000086,-1.04541254,2.528349876,0.1911250055
13.91782037,0.2520000041,-0.5070000291,-0.2910000086,-1.04541254,2.528349876,0.1911250055
13.93782037,3.277050257,-3.034050226,-0.6550500393,-0.4314749837,2.16260004,-0.3630000055
13.95782037,3.277050257,-3.034050226,-0.6550500393,-0.4314749837,2.16260004,-0.3630000055
13.97782037,3.277050257,-3.034050226,-0.6550500393,-0.4314749837,2.16260004,-0.3630000055
13.99782037,3.277050257,-3.034050226,-0.6550500393,-0.4314749837,2.16260004,-0.3630000055
14.01782037,3.277050257,-3.034050226,-0.6550500393,-0.4314749837,2.16260004,-0.3630000055
14.03782037,6.628050327,-20.9959507,3.787050247,-0.622600019,-2.028125048,-1.547012448
14.05782037,6.628050327,-20.9959507,3.787050247,-0.622600019,-2.028125048,-1.547012448
14.07782037,6.628050327,-20.9959507,3.787050247,-0.622600019,-2.028125048,-1.547012448
14.09782037,6.628050327,-20.9959507,3.787050247,-0.622600019,-2.028125048,-1.547012448
14.11782037,6.628050327,-20.9959507,3.787050247,-0.622600019,-2.028125048,-1.547012448
14.13782037,2.607000113,-12.85800076,1.603950024,0.4575999975,-2.268337488,-1.168475032
14.15782037,2.607000113,-12.85800076,1.603950024,0.4575999975,-2.268337488,-1.168475032
14.17782037,2.607000113,-12.85800076,1.603950024,0.4575999975,-2.268337488,-1.168475032
14.19782037,2.607000113,-12.85800076,1.603950024,0.4575999975,-2.268337488,-1.168475032
14.21782037,2.607000113,-12.85800076,1.603950024,0.4575999975,-2.268337488,-1.168475032
14.23782037,1.228050113,-6.634050369,-0.6930000186,0.7654625177,0.1616999954,0.6979500055
14.25782037,1.228050113,-6.634050369,-0.6930000186,0.7654625177,0.1616999954,0.6979500055
14.27782037,2.530950069,-8.089950562,0.913950026,0.1199000031,-0.005774999969,1.485550046
14.29782037,2.530950069,-8.089950562,0.913950026,0.1199000031,-0.005774999969,1.485550046
14.31782037,3.39195013,-8.2999506,1.029000044,0.4147000015,-0.3598375022,0.9708874822
14.35782037,3.39195013,-8.2999506,1.029000044,0.4147000015,-0.3598375022,0.9708874822
14.37782037,5.977050304,-8.740950584,0.07200000435,0.3966875076,-0.9649749994,0.568012476
14.39782037,5.977050304,-8.740950584,0.07200000435,0.3966875076,-0.9649749994,0.568012476
14.41782037,5.977050304,-8.740950584,0.07200000435,0.3966875076,-0.9649749994,0.568012476
14.43782037,5.977050304,-8.740950584,0.07200000435,0.3966875076,-0.9649749994,0.568012476
14.45782037,5.977050304,-8.740950584,0.07200000435,0.3966875076,-0.9649749994,0.568012476
14.47782037,2.454000235,-9.526050568,0.3970500231,0.2022625059,-2.213200092,-0.5230500102
14.49782037,2.454000235,-9.526050568,0.3970500231,0.2022625059,-2.213200092,-0.5230500102
14.51782037,2.35800004,-10.40700054,2.044049978,0.8523625135,-0.9227625132,-0.2222000062
14.53782037,2.35800004,-10.40700054,2.044049978,0.8523625135,-0.9227625132,-0.2222000062
14.55782037,2.35800004,-10.40700054,2.044049978,0.8523625135,-0.9227625132,-0.2222000062
14.57782037,2.35800004,-10.40700054,2.044049978,0.8523625135,-0.9227625132,-0.2222000062
14.59782037,2.35800004,-10.40700054,2.044049978,0.8523625135,-0.9227625132,-0.2222000062
14.61782037,3.354000092,-17.03205109,0.05295000225,0.5950999856,-0.3206500113,0.743462503
14.63782037,3.354000092,-17.03205109,0.05295000225,0.5950999856,-0.3206500113,0.743462503
14.65782037,0.02205000073,-12.89595032,-5.059050083,0.1531749964,-0.4082374871,1.135749936
14.67782037,0.02205000073,-12.89595032,-5.059050083,0.1531749964,-0.4082374871,1.135749936
14.69782037,0.02205000073,-12.89595032,-5.059050083,0.1531749964,-0.4082374871,1.135749936
14.71782037,2.397000074,-10.06200027,-2.646000147,-0.5578374863,-1.052012444,1.159950018
14.73782037,2.397000074,-10.06200027,-2.646000147,-0.5578374863,-1.052012444,1.159950018
14.75782037,2.397000074,-10.06200027,-2.646000147,-0.5578374863,-1.052012444,1.159950018
14.77782037,2.397000074,-10.06200027,-2.646000147,-0.5578374863,-1.052012444,1.159950018
14.79782037,2.397000074,-10.06200027,-2.646000147,-0.5578374863,-1.052012444,1.159950018
14.81782037,2.397000074,-10.06200027,-2.646000147,-0.5578374863,-1.052012444,1.159950018
14.83782037,2.397000074,-10.06200027,-2.646000147,-0.5578374863,-1.052012444,1.159950018
14.85782037,2.109000206,-7.687050343,1.52700007,-0.6487249732,-0.3711124957,0.002337499987
14.87782037,2.109000206,-7.687050343,1.52700007,-0.6487249732,-0.3711124957,0.002337499987
14.89782037,2.109000206,-7.687050343,1.52700007,-0.6487249732,-0.3711124957,0.002337499987
14.91782037,2.109000206,-7.687050343,1.52700007,-0.6487249732,-0.3711124957,0.002337499987
14.93782037,2.109000206,-7.687050343,1.52700007,-0.6487249732,-0.3711124957,0.002337499987
14.95782037,5.326050282,-7.801950455,1.470000029,0.2355374992,1.75326252,-1.217837453
14.97782037,5.326050282,-7.801950455,1.470000029,0.2355374992,1.75326252,-1.217837453
14.99782037,3.507000208,-8.43405056,0.1290000081,0.180675,2.381637573,-1.050225019
15.01782037,3.507000208,-8.43405056,0.1290000081,0.180675,2.381637573,-1.050225019
15.03782037,3.507000208,-8.43405056,0.1290000081,0.180675,2.381637573,-1.050225019
15.05782037,2.148000002,-6.51900053,0.05295000225,-0.3059374988,2.282637596,-0.9314249754
15.07782037,2.148000002,-6.51900053,0.05295000225,-0.3059374988,2.282637596,-0.9314249754
15.09782037,1.744950056,-4.758000374,-0.7890000343,-0.5032500029,2.175937414,-0.8449375033
15.11782037,1.744950056,-4.758000374,-0.7890000343,-0.5032500029,2.175937414,-0.8449375033
15.13782037,1.744950056,-4.758000374,-0.7890000343,-0.5032500029,2.175937414,-0.8449375033
15.15782037,1.744950056,-4.758000374,-0.7890000343,-0.5032500029,2.175937414,-0.8449375033
15.17782037,1.744950056,-4.758000374,-0.7890000343,-0.5032500029,2.175937414,-0.8449375033
15.19782037,3.028050184,-2.919000149,-2.80005002,-0.9774875045,1.246024966,-0.4131875038
15.21782037,3.028050184,-2.919000149,-2.80005002,-0.9774875045,1.246024966,-0.4131875038
15.23782037,10.89900017,-8.740950584,4.456950188,-1.15843749,-0.7159624696,-0.7053750157
15.23782037,10.89900017,-8.740950584,4.456950188,-1.15843749,-0.7159624696,-0.7053750157
15.27782037,10.89900017,-8.740950584,4.456950188,-1.15843749,-0.7159624696,-0.7053750157
15.29782037,10.36305046,-18.73695183,-0.2340000123,0.9396749735,1.140149951,-1.422987461
15.31782037,10.36305046,-18.73695183,-0.2340000123,0.9396749735,1.140149951,-1.422987461
15.33782037,5.842950344,-5.524050236,-1.420950055,0.4003999829,0.4193750024,-0.5648499727
15.35782037,5.842950344,-5.524050236,-1.420950055,0.4003999829,0.4193750024,-0.5648499727
15.37782037,5.842950344,-5.524050236,-1.420950055,0.4003999829,0.4193750024,-0.5648499727
15.39782037,5.842950344,-5.524050236,-1.420950055,0.4003999829,0.4193750024,-0.5648499727
15.41782037,5.842950344,-5.524050236,-1.420950055,0.4003999829,0.4193750024,-0.5648499727
15.43782037,1.611000061,-10.7320509,2.274000168,0.4218499959,0.3599750102,0.3645125031
15.45782037,1.611000061,-10.7320509,2.274000168,0.4218499959,0.3599750102,0.3645125031
15.47782037,1.611000061,-10.7320509,2.274000168,0.4218499959,0.3599750102,0.3645125031
15.49782037,1.611000061,-10.7320509,2.274000168,0.4218499959,0.3599750102,0.3645125031
15.51782037,1.611000061,-10.7320509,2.274000168,0.4218499959,0.3599750102,0.3645125031
15.53782037,3.450000048,-7.150950432,0.7609500289,-0.846175015,-0.511362493,1.56309998
15.55782037,3.450000048,-7.150950432,0.7609500289,-0.846175015,-0.511362493,1.56309998
15.57782037,3.450000048,-7.150950432,0.7609500289,-0.846175015,-0.511362493,1.56309998
15.59782037,3.450000048,-7.150950432,0.7609500289,-0.846175015,-0.511362493,1.56309998
15.61782037,3.450000048,-7.150950432,0.7609500289,-0.846175015,-0.511362493,1.56309998
15.63782037,3.450000048,-7.150950432,0.7609500289,-0.846175015,-0.511362493,1.56309998
15.65782037,3.450000048,-7.150950432,0.7609500289,-0.846175015,-0.511362493,1.56309998
15.67782037,4.38795042,-8.875050545,0.2250000089,0.3196874857,-1.043762445,0.3937999904
15.69782037,4.38795042,-8.875050545,0.2250000089,0.3196874857,-1.043762445,0.3937999904
15.71782037,4.350000381,-9.832050323,1.393050075,0.1992374957,-1.997187495,-0.3289000094
15.73782037,4.350000381,-9.832050323,1.393050075,0.1992374957,-1.997187495,-0.3289000094
15.75782037,4.350000381,-9.832050323,1.393050075,0.1992374957,-1.997187495,-0.3289000094
15.77782037,2.875050068,-9.277050018,1.719000101,0.5941374898,-1.560762525,-0.3851374984
15.79782037,2.875050068,-9.277050018,1.719000101,0.5941374898,-1.560762525,-0.3851374984
15.81782037,2.875050068,-9.277050018,1.719000101,0.5941374898,-1.560762525,-0.3851374984
15.83782037,2.875050068,-9.277050018,1.719000101,0.5941374898,-1.560762525,-0.3851374984
15.85782037,2.875050068,-9.277050018,1.719000101,0.5941374898,-1.560762525,-0.3851374984
15.87782037,2.875050068,-9.277050018,1.719000101,0.5941374898,-1.560762525,-0.3851374984
15.89782037,2.875050068,-9.277050018,1.719000101,0.5941374898,-1.560762525,-0.3851374984
15.91782037,2.109000206,-14.4090004,1.144050002,0.3222999871,-0.5700749755,1.115537524
15.93782037,2.109000206,-14.4090004,1.144050002,0.3222999871,-0.5700749755,1.115537524
15.95782037,2.109000206,-14.4090004,1.144050002,0.3222999871,-0.5700749755,1.115537524
15.97782037,2.109000206,-14.4090004,1.144050002,0.3222999871,-0.5700749755,1.115537524
15.99782037,2.109000206,-14.4090004,1.144050002,0.3222999871,-0.5700749755,1.115537524
16.01782037,0.3670500219,-11.13405037,-2.397000074,-0.1816374958,-0.460074991,1.145237446
16.03782037,0.3670500219,-11.13405037,-2.397000074,-0.1816374958,-0.460074991,1.145237446
16.05782037,3.411000252,-8.855999947,-2.071950197,-0.6285125017,-0.8536000252,0.8058875203
16.07782037,3.411000252,-8.855999947,-2.071950197,-0.6285125017,-0.8536000252,0.8058875203
16.09782037,3.411000252,-8.855999947,-2.071950197,-0.6285125017,-0.8536000252,0.8058875203
16.11782037,6.207000256,-10.56000042,-1.68900013,-0.6223250031,-0.7664250135,0.06324999779
16.13782037,6.207000256,-10.56000042,-1.68900013,-0.6223250031,-0.7664250135,0.06324999779
16.15782037,1.936950088,-8.893950462,2.523000002,-0.476850003,-0.3385249972,-0.5652624965
16.17782037,1.936950088,-8.893950462,2.523000002,-0.476850003,-0.3385249972,-0.5652624965
16.19782037,1.936950088,-8.893950462,2.523000002,-0.476850003,-0.3385249972,-0.5652624965
16.21782037,1.936950088,-8.893950462,2.523000002,-0.476850003,-0.3385249972,-0.5652624965
16.23782037,1.936950088,-8.893950462,2.523000002,-0.476850003,-0.3385249972,-0.5652624965
16.25782037,-2.446950197,-6.577050209,-2.80005002,-0.6459749937,0.6763625145,0.4628250003
16.27782037,-2.446950197,-6.577050209,-2.80005002,-0.6459749937,0.6763625145,0.4628250003
16.29782037,-2.446950197,-6.577050209,-2.80005002,-0.6459749937,0.6763625145,0.4628250003
16.31782037,-2.446950197,-6.577050209,-2.80005002,-0.6459749937,0.6763625145,0.4628250003
16.33782037,-2.446950197,-6.577050209,-2.80005002,-0.6459749937,0.6763625145,0.4628250003
16.35782037,1.879950047,-7.419000149,-0.5779500008,-0.4247374833,2.05975008,1.391362548
16.37782037,1.879950047,-7.419000149,-0.5779500008,-0.4247374833,2.05975008,1.391362548
16.39782037,2.683950186,-8.664000511,-0.6739500165,-0.3044250011,2.799774885,1.692487478
16.41782037,2.683950186,-8.664000511,-0.6739500165,-0.3044250011,2.799774885,1.692487478
16.43782037,2.683950186,-8.664000511,-0.6739500165,-0.3044250011,2.799774885,1.692487478
16.45782037,2.683950186,-8.664000511,-0.6739500165,-0.3044250011,2.799774885,1.692487478
16.47782037,2.683950186,-8.664000511,-0.6739500165,-0.3044250011,2.799774885,1.692487478
16.49782037,0.7110000253,-8.452950478,-0.7120500207,-0.3808749914,1.224437475,-0.6333249807
16.51782037,0.7110000253,-8.452950478,-0.7120500207,-0.3808749914,1.224437475,-0.6333249807
16.53782037,0.7110000253,-8.452950478,-0.7120500207,-0.3808749914,1.224437475,-0.6333249807
16.55782037,0.7110000253,-8.452950478,-0.7120500207,-0.3808749914,1.224437475,-0.6333249807
16.57782037,0.7110000253,-8.452950478,-0.7120500207,-0.3808749914,1.224437475,-0.6333249807
16.59782037,0.7110000253,-8.452950478,-0.7120500207,-0.3808749914,1.224437475,-0.6333249807
16.61782037,0.7110000253,-8.452950478,-0.7120500207,-0.3808749914,1.224437475,-0.6333249807
16.63782037,4.885950089,-8.530050278,0.8760000467,0.339212507,1.615487456,-0.5886374712
16.65782037,4.885950089,-8.530050278,0.8760000467,0.339212507,1.615487456,-0.5886374712
16.67782037,4.885950089,-8.530050278,0.8760000467,0.339212507,1.615487456,-0.5886374712
16.69782037,4.885950089,-8.530050278,0.8760000467,0.339212507,1.615487456,-0.5886374712
16.71782037,4.885950089,-8.530050278,0.8760000467,0.339212507,1.615487456,-0.5886374712
16.73782037,7.701000214,-9.238950729,0.9529500604,0.6683874726,0.7215999961,-1.468500018
16.75782037,7.701000214,-9.238950729,0.9529500604,0.6683874726,0.7215999961,-1.468500018
16.77782037,7.720050335,-12.8770504,-5.824950218,0.6683874726,0.7215999961,-1.468500018
16.77782037,7.720050335,-12.8770504,-5.824950218,0.6683874726,0.7215999961,-1.468500018
16.81782037,7.720050335,-12.8770504,-5.824950218,0.6683874726,0.7215999961,-1.468500018
16.83782037,1.267050028,-8.281050682,1.201950073,0.1929125041,0.4948624969,-1.056687474
16.85782037,1.267050028,-8.281050682,1.201950073,0.1929125041,0.4948624969,-1.056687474
16.87782037,-0.2830500007,-7.056000233,0.511950016,-0.04812499881,0.6104999781,-0.5200250149
16.89782037,-0.2830500007,-7.056000233,0.511950016,-0.04812499881,0.6104999781,-0.5200250149
16.91782037,-0.2830500007,-7.056000233,0.511950016,-0.04812499881,0.6104999781,-0.5200250149
16.93782037,0.06000000238,-11.13405037,2.464950085,-0.5677375197,1.580562472,0.5418875217
16.95782037,0.06000000238,-11.13405037,2.464950085,-0.5677375197,1.580562472,0.5418875217
16.97782037,1.936950088,-11.34495068,3.921000242,-0.5876749754,2.469774961,1.12736249
16.99782037,1.936950088,-11.34495068,3.921000242,-0.5876749754,2.469774961,1.12736249
17.01782037,1.936950088,-11.34495068,3.921000242,-0.5876749754,2.469774961,1.12736249
17.03782037,1.936950088,-11.34495068,3.921000242,-0.5876749754,2.469774961,1.12736249
17.05782037,1.936950088,-11.34495068,3.921000242,-0.5876749754,2.469774961,1.12736249
17.07782037,0.2140500098,-9.966000557,0.4159500301,-0.09638749808,2.547324896,1.120625019
17.09782037,0.2140500098,-9.966000557,0.4159500301,-0.09638749808,2.547324896,1.120625019
17.11782037,-2.140950203,-10.23405075,3.307950258,-0.1359875053,2.2661376,0.7715125084
17.13782037,-2.140950203,-10.23405075,3.307950258,-0.1359875053,2.2661376,0.7715125084
17.15782037,-2.140950203,-10.23405075,3.307950258,-0.1359875053,2.2661376,0.7715125084
17.17782037,-3.538950205,-10.19595051,4.456950188,0.1043625027,2.399512529,0.636487484
17.19782037,-3.538950205,-10.19595051,4.456950188,0.1043625027,2.399512529,0.636487484
17.21782037,0.4620000124,-9.238950729,7.119000435,0.4686000049,2.707237482,0.6553249955
17.23782037,0.4620000124,-9.238950729,7.119000435,0.4686000049,2.707237482,0.6553249955
17.25782037,0.4620000124,-9.238950729,7.119000435,0.4686000049,2.707237482,0.6553249955
17.27782037,0.4620000124,-9.238950729,7.119000435,0.4686000049,2.707237482,0.6553249955
17.29782037,0.4620000124,-9.238950729,7.119000435,0.4686000049,2.707237482,0.6553249955
17.31782037,7.126050472,-11.49795055,4.170000076,1.349837542,2.244137526,-0.3470500112
17.33782037,7.126050472,-11.49795055,4.170000076,1.349837542,2.244137526,-0.3470500112
17.35782037,7.126050472,-11.49795055,4.170000076,1.349837542,2.244137526,-0.3470500112
17.37782037,7.126050472,-11.49795055,4.170000076,1.349837542,2.244137526,-0.3470500112
17.39782037,7.126050472,-11.49795055,4.170000076,1.349837542,2.244137526,-0.3470500112
17.41782037,11.68395042,-9.219000816,-2.128950119,0.6737499833,-0.2505249977,-2.746837378
17.43782037,11.68395042,-9.219000816,-2.128950119,0.6737499833,-0.2505249977,-2.746837378
17.45782037,6.954000473,-8.013000488,-3.451050282,-1.346125007,-0.6638500094,-3.53361249
17.47782037,6.954000473,-8.013000488,-3.451050282,-1.346125007,-0.6638500094,-3.53361249
17.49782037,6.954000473,-8.013000488,-3.451050282,-1.346125007,-0.6638500094,-3.53361249
17.51782037,6.954000473,-8.013000488,-3.451050282,-1.346125007,-0.6638500094,-3.53361249
17.53782037,6.954000473,-8.013000488,-3.451050282,-1.346125007,-0.6638500094,-3.53361249
17.55782037,1.936950088,-13.37505054,-1.593000054,-7.504337311,7.755412579,-2.022074938
17.57782037,1.936950088,-13.37505054,-1.593000054,-7.504337311,7.755412579,-2.022074938
17.59782037,1.936950088,-13.37505054,-1.593000054,-7.504337311,7.755412579,-2.022074938
17.61782037,1.936950088,-13.37505054,-1.593000054,-7.504337311,7.755412579,-2.022074938
17.63782037,1.936950088,-13.37505054,-1.593000054,-7.504337311,7.755412579,-2.022074938
17.65782037,-0.7429500222,-8.491950035,0.3970500231,-3.162637472,3.19934988,1.889799953
17.67782037,-0.7429500222,-8.491950035,0.3970500231,-3.162637472,3.19934988,1.889799953
17.69782037,-0.7429500222,-8.491950035,0.3970500231,-3.162637472,3.19934988,1.889799953
17.71782037,-0.7429500222,-8.491950035,0.3970500231,-3.162637472,3.19934988,1.889799953
17.73782037,-0.7429500222,-8.491950035,0.3970500231,-3.162637472,3.19934988,1.889799953
17.75782037,3.105000257,-7.305000305,0.9340500236,0.2436500043,0.6941000223,1.796437502
17.77782037,3.105000257,-7.305000305,0.9340500236,0.2436500043,0.6941000223,1.796437502
17.79782037,3.526050091,-5.773050308,-0.1759500057,0.7942000031,0.3874749839,0.6730625033
17.81782037,3.526050091,-5.773050308,-0.1759500057,0.7942000031,0.3874749839,0.6730625033
17.83782037,3.526050091,-5.773050308,-0.1759500057,0.7942000031,0.3874749839,0.6730625033
17.85782037,3.526050091,-5.773050308,-0.1759500057,0.7942000031,0.3874749839,0.6730625033
17.87782037,3.526050091,-5.773050308,-0.1759500057,0.7942000031,0.3874749839,0.6730625033
17.89782037,4.311000347,-5.868000507,-0.5779500008,-0.1150875017,1.363862514,-1.298962474
17.91782037,4.311000347,-5.868000507,-0.5779500008,-0.1150875017,1.363862514,-1.298962474
17.93782037,5.632950306,-5.101950169,0.4740000367,-0.7229750156,2.069649935,-2.041737556
17.95782037,5.632950306,-5.101950169,0.4740000367,-0.7229750156,2.069649935,-2.041737556
17.97782037,5.632950306,-5.101950169,0.4740000367,-0.7229750156,2.069649935,-2.041737556
17.99782037,2.66505003,-5.734050274,-0.751050055,-1.299787521,2.404187441,-2.130424976
18.01782037,2.66505003,-5.734050274,-0.751050055,-1.299787521,2.404187441,-2.130424976
18.03782037,2.875050068,-7.956000328,1.08705008,-1.200787544,1.687399983,-1.314362526
18.05782037,2.875050068,-7.956000328,1.08705008,-1.200787544,1.687399983,-1.314362526
18.07782037,2.875050068,-7.956000328,1.08705008,-1.200787544,1.687399983,-1.314362526
18.09782037,2.875050068,-7.956000328,1.08705008,-1.200787544,1.687399983,-1.314362526
18.11782037,2.875050068,-7.956000328,1.08705008,-1.200787544,1.687399983,-1.314362526
18.13782037,6.763050556,-18.81300163,-7.663050175,-0.4003999829,-0.2585000098,0.3264249861
18.15782037,6.763050556,-18.81300163,-7.663050175,-0.4003999829,-0.2585000098,0.3264249861
18.17782037,6.763050556,-18.81300163,-7.663050175,-0.4003999829,-0.2585000098,0.3264249861
18.19782037,6.763050556,-18.81300163,-7.663050175,-0.4003999829,-0.2585000098,0.3264249861
18.21782037,6.763050556,-18.81300163,-7.663050175,-0.4003999829,-0.2585000098,0.3264249861
18.23782037,2.703000069,-13.85400105,3.04005003,1.456262469,-1.70527494,1.408137441
18.25782037,2.703000069,-13.85400105,3.04005003,1.456262469,-1.70527494,1.408137441
18.27782037,0.9990000725,-13.41300106,2.638050079,1.264587522,-1.580425024,1.185387492
18.29782037,0.9990000725,-13.41300106,2.638050079,1.264587522,-1.580425024,1.185387492
18.31782037,0.9990000725,-13.41300106,2.638050079,1.264587522,-1.580425024,1.185387492
18.33782037,0.9990000725,-13.41300106,2.638050079,1.264587522,-1.580425024,1.185387492
18.35782037,0.9990000725,-13.41300106,2.638050079,1.264587522,-1.580425024,1.185387492
18.37782037,1.765050054,-5.236050129,-3.642000198,1.263487458,-1.433987498,1.076487541
18.39782037,1.765050054,-5.236050129,-3.642000198,1.263487458,-1.433987498,1.076487541
18.41782037,1.765050054,-5.236050129,-3.642000198,1.263487458,-1.433987498,1.076487541
18.43782037,1.765050054,-5.236050129,-3.642000198,1.263487458,-1.433987498,1.076487541
18.45782037,1.765050054,-5.236050129,-3.642000198,1.263487458,-1.433987498,1.076487541
18.47782037,6.763050556,-4.852950096,-0.004050000105,-0.8108375072,0.399574995,-0.6472125053
18.49782037,6.763050556,-4.852950096,-0.004050000105,-0.8108375072,0.399574995,-0.6472125053
18.51782037,6.763050556,-4.852950096,-0.004050000105,-0.8108375072,0.399574995,-0.6472125053
18.53782037,6.763050556,-4.852950096,-0.004050000105,-0.8108375072,0.399574995,-0.6472125053
18.55782037,6.763050556,-4.852950096,-0.004050000105,-0.8108375072,0.399574995,-0.6472125053
18.57782037,3.832950115,-7.458000183,2.140050173,-2.060849905,2.79867506,-2.783550024
18.61782037,3.775050163,-7.342950344,1.240050077,-1.285899997,2.263525009,-1.993199944
18.63782037,3.775050163,-7.342950344,1.240050077,-1.285899997,2.263525009,-1.993199944
18.65782037,3.775050163,-7.342950344,1.240050077,-1.285899997,2.263525009,-1.993199944
18.67782037,3.775050163,-7.342950344,1.240050077,-1.285899997,2.263525009,-1.993199944
18.69782037,3.775050163,-7.342950344,1.240050077,-1.285899997,2.263525009,-1.993199944
18.71782037,6.8770504,-13.4320507,-2.244000196,1.401812434,-0.5172749758,0.1739374995
18.73782037,6.8770504,-13.4320507,-2.244000196,1.401812434,-0.5172749758,0.1739374995
18.75782037,8.850000381,-16.26600075,-0.3870000243,0.4189625084,-1.379950047,0.8951249719
18.77782037,8.850000381,-16.26600075,-0.3870000243,0.4189625084,-1.379950047,0.8951249719
18.79782037,8.850000381,-16.26600075,-0.3870000243,0.4189625084,-1.379950047,0.8951249719
18.81782037,4.867050171,-17.68305016,-0.1950000077,0.2155999988,-1.521024942,0.9774875045
18.83782037,4.867050171,-17.68305016,-0.1950000077,0.2155999988,-1.521024942,0.9774875045
18.85782037,1.822050095,-8.722050667,-0.4060500264,0.09735000134,-1.432749987,0.9480624795
18.87782037,1.822050095,-8.722050667,-0.4060500264,0.09735000134,-1.432749987,0.9480624795
18.89782037,1.822050095,-8.722050667,-0.4060500264,0.09735000134,-1.432749987,0.9480624795
18.91782037,1.822050095,-8.722050667,-0.4060500264,0.09735000134,-1.432749987,0.9480624795
18.93782037,1.822050095,-8.722050667,-0.4060500264,0.09735000134,-1.432749987,0.9480624795
18.95782037,0.405000031,-5.983050346,-0.4440000355,-0.118112497,-0.9080500007,0.588362515
18.97782037,0.405000031,-5.983050346,-0.4440000355,-0.118112497,-0.9080500007,0.588362515
18.99782037,0.405000031,-5.983050346,-0.4440000355,-0.118112497,-0.9080500007,0.588362515
19.01782037,0.405000031,-5.983050346,-0.4440000355,-0.118112497,-0.9080500007,0.588362515
19.03782037,0.405000031,-5.983050346,-0.4440000355,-0.118112497,-0.9080500007,0.588362515
19.05782037,0.5010000467,-5.236050129,0.5890500546,0.30923751,-0.9729499817,1.553200006
19.07782037,0.5010000467,-5.236050129,0.5890500546,0.30923751,-0.9729499817,1.553200006
19.09782037,2.818050146,-5.332050323,-1.918950081,0.3955875039,-0.6424000263,0.7493749857
19.11782037,2.818050146,-5.332050323,-1.918950081,0.3955875039,-0.6424000263,0.7493749857
19.13782037,2.818050146,-5.332050323,-1.918950081,0.3955875039,-0.6424000263,0.7493749857
19.15782037,2.818050146,-5.332050323,-1.918950081,0.3955875039,-0.6424000263,0.7493749857
19.17782037,2.818050146,-5.332050323,-1.918950081,0.3955875039,-0.6424000263,0.7493749857
19.19782037,6.016050339,-12.91500092,-1.785000086,-1.171912551,0.3364624977,-0.5296499729
19.21782037,6.016050339,-12.91500092,-1.785000086,-1.171912551,0.3364624977,-0.5296499729
19.23782037,6.016050339,-12.91500092,-1.785000086,-1.171912551,0.3364624977,-0.5296499729
19.25782037,6.016050339,-12.91500092,-1.785000086,-1.171912551,0.3364624977,-0.5296499729
19.27782037,6.016050339,-12.91500092,-1.785000086,-1.171912551,0.3364624977,-0.5296499729
19.29782037,2.416050196,-9.660000801,-1.726950049,-0.4679124951,0.5209875107,-0.4548499882
19.31782037,2.416050196,-9.660000801,-1.726950049,-0.4679124951,0.5209875107,-0.4548499882
19.33782037,6.571050167,-8.013000488,0.8190000653,-0.8148249984,0.9190499783,-0.3837625086
19.37782037,6.571050167,-8.013000488,0.8190000653,-0.8148249984,0.9190499783,-0.3837625086
19.39782037,7.681950569,-9.909000397,1.872000098,-0.05884999782,1.291674972,-0.5594875216
19.41782037,7.681950569,-9.909000397,1.872000098,-0.05884999782,1.291674972,-0.5594875216
19.43782037,3.238950253,-11.88105011,1.009950042,0.4411000013,1.285624981,-0.3790875077
19.45782037,3.238950253,-11.88105011,1.009950042,0.4411000013,1.285624981,-0.3790875077
19.47782037,3.238950253,-11.88105011,1.009950042,0.4411000013,1.285624981,-0.3790875077
19.49782037,3.238950253,-11.88105011,1.009950042,0.4411000013,1.285624981,-0.3790875077
19.51782037,3.238950253,-11.88105011,1.009950042,0.4411000013,1.285624981,-0.3790875077
19.53782037,1.401000023,-15.2320509,4.936050415,1.151975036,0.08648750186,0.5509625077
19.55782037,1.401000023,-15.2320509,4.936050415,1.151975036,0.08648750186,0.5509625077
19.57782037,1.401000023,-15.2320509,4.936050415,1.151975036,0.08648750186,0.5509625077
19.59782037,1.401000023,-15.2320509,4.936050415,1.151975036,0.08648750186,0.5509625077
19.61782037,1.401000023,-15.2320509,4.936050415,1.151975036,0.08648750186,0.5509625077
19.63782037,4.963050365,-8.797950745,-1.095000029,0.7273749709,-0.8151000142,1.233787537
19.65782037,4.963050365,-8.797950745,-1.095000029,0.7273749709,-0.8151000142,1.233787537
19.67782037,4.216050148,-6.175050259,-0.4630500078,0.5784624815,-0.8267874718,1.043074965
19.69782037,4.216050148,-6.175050259,-0.4630500078,0.5784624815,-0.8267874718,1.043074965
19.71782037,4.216050148,-6.175050259,-0.4630500078,0.5784624815,-0.8267874718,1.043074965
19.73782037,4.216050148,-6.175050259,-0.4630500078,0.5784624815,-0.8267874718,1.043074965
19.75782037,4.216050148,-6.175050259,-0.4630500078,0.5784624815,-0.8267874718,1.043074965
19.77782037,3.048000097,-5.811000347,-0.5020500422,-0.9652500153,0.8064374924,-0.8260999918
19.79782037,3.048000097,-5.811000347,-0.5020500422,-0.9652500153,0.8064374924,-0.8260999918
19.81782037,3.048000097,-5.811000347,-0.5020500422,-0.9652500153,0.8064374924,-0.8260999918
19.83782037,3.048000097,-5.811000347,-0.5020500422,-0.9652500153,0.8064374924,-0.8260999918
19.85782037,3.048000097,-5.811000347,-0.5020500422,-0.9652500153,0.8064374924,-0.8260999918
19.87782037,3.354000092,-4.795950413,3.270000219,-1.308312535,1.688225031,-1.438524961
19.89782037,3.354000092,-4.795950413,3.270000219,-1.308312535,1.688225031,-1.438524961
19.91782037,8.447999954,-8.530050278,0.6850500107,0.05156249925,1.48664999,-1.345024943
19.93782037,8.447999954,-8.530050278,0.6850500107,0.05156249925,1.48664999,-1.345024943
19.95782037,6.475050449,-12.78105068,1.564950109,1.01364994,0.9048874974,-0.9755625129
19.97782037,6.475050449,-12.78105068,1.564950109,1.01364994,0.9048874974,-0.9755625129
19.99782037,6.475050449,-12.78105068,1.564950109,1.01364994,0.9048874974,-0.9755625129
20.01782037,5.614050388,-17.8750515,-3.240000248,0.6546375155,-0.2177999914,0.04564999789
20.03782037,5.614050388,-17.8750515,-3.240000248,0.6546375155,-0.2177999914,0.04564999789
20.05782037,5.614050388,-17.8750515,-3.240000248,0.6546375155,-0.2177999914,0.04564999789
20.07782037,5.614050388,-17.8750515,-3.240000248,0.6546375155,-0.2177999914,0.04564999789
20.09782037,5.614050388,-17.8750515,-3.240000248,0.6546375155,-0.2177999914,0.04564999789
20.11782037,2.58795023,-8.166000366,-0.6550500393,-0.1647250056,-0.81743747,0.6100875139
20.13782037,2.58795023,-8.166000366,-0.6550500393,-0.1647250056,-0.81743747,0.6100875139
20.15782037,2.454000235,-7.477050304,-0.2140500098,-0.438349992,-0.8773875237,0.6983624697
20.17782037,2.454000235,-7.477050304,-0.2140500098,-0.438349992,-0.8773875237,0.6983624697
20.19782037,2.454000235,-7.477050304,-0.2140500098,-0.438349992,-0.8773875237,0.6983624697
20.21782037,2.454000235,-7.477050304,-0.2140500098,-0.438349992,-0.8773875237,0.6983624697
20.23782037,2.454000235,-7.477050304,-0.2140500098,-0.438349992,-0.8773875237,0.6983624697
20.25782037,0.6349500418,-5.752950191,-0.1570500135,-0.46419999,-0.7030375004,0.760237515
20.27782037,0.6349500418,-5.752950191,-0.1570500135,-0.46419999,-0.7030375004,0.760237515
20.29782037,0.6349500418,-5.752950191,-0.1570500135,-0.46419999,-0.7030375004,0.760237515
20.31782037,0.6349500418,-5.752950191,-0.1570500135,-0.46419999,-0.7030375004,0.760237515
20.33782037,0.6349500418,-5.752950191,-0.1570500135,-0.46419999,-0.7030375004,0.760237515
20.35782037,0.6349500418,-5.752950191,-0.1570500135,-0.46419999,-0.7030375004,0.760237515
20.37782037,0.6349500418,-5.752950191,-0.1570500135,-0.46419999,-0.7030375004,0.760237515
20.39782037,0.6349500418,-5.752950191,-0.1570500135,-0.46419999,-0.7030375004,0.760237515
20.41782037,0.6349500418,-5.752950191,-0.1570500135,-0.46419999,-0.7030375004,0.760237515
20.43782037,0.6349500418,-5.752950191,-0.1570500135,-0.46419999,-0.7030375004,0.760237515
20.45782037,5.499000072,-10.27305031,-5.7289505,0.2264624983,-0.1071124971,-0.1792999953
20.47782037,5.499000072,-10.27305031,-5.7289505,0.2264624983,-0.1071124971,-0.1792999953
20.49782037,5.058000088,-6.960000515,-0.1950000077,-0.6216375232,0.6637125015,-0.7507500052
20.51782037,5.058000088,-6.960000515,-0.1950000077,-0.6216375232,0.6637125015,-0.7507500052
20.53782037,5.058000088,-6.960000515,-0.1950000077,-0.6216375232,0.6637125015,-0.7507500052
20.55782037,5.058000088,-6.960000515,-0.1950000077,-0.6216375232,0.6637125015,-0.7507500052
20.57782037,5.058000088,-6.960000515,-0.1950000077,-0.6216375232,0.6637125015,-0.7507500052
20.59782037,5.058000088,-6.960000515,-0.1950000077,-0.6216375232,0.6637125015,-0.7507500052
20.61782037,5.058000088,-6.960000515,-0.1950000077,-0.6216375232,0.6637125015,-0.7507500052
20.63782037,5.058000088,-6.960000515,-0.1950000077,-0.6216375232,0.6637125015,-0.7507500052
20.65782037,5.058000088,-6.960000515,-0.1950000077,-0.6216375232,0.6637125015,-0.7507500052
20.67782037,5.058000088,-6.960000515,-0.1950000077,-0.6216375232,0.6637125015,-0.7507500052
20.69782037,4.042950153,-8.530050278,-0.6739500165,-0.3497999907,1.078824997,-0.07273750007
20.71782037,4.042950153,-8.530050278,-0.6739500165,-0.3497999907,1.078824997,-0.07273750007
20.73782037,4.042950153,-8.530050278,-0.6739500165,-0.3497999907,1.078824997,-0.07273750007
20.75782037,4.042950153,-8.530050278,-0.6739500165,-0.3497999907,1.078824997,-0.07273750007
20.77782037,4.042950153,-8.530050278,-0.6739500165,-0.3497999907,1.078824997,-0.07273750007
20.79782037,4.042950153,-8.530050278,-0.6739500165,-0.3497999907,1.078824997,-0.07273750007
20.81782037,4.042950153,-8.530050278,-0.6739500165,-0.3497999907,1.078824997,-0.07273750007
20.83782037,3.660000086,-14.35095024,3.36495018,0.04372499883,0.2785750031,0.6000499725
20.85782037,3.660000086,-14.35095024,3.36495018,0.04372499883,0.2785750031,0.6000499725
20.87782037,3.660000086,-14.35095024,3.36495018,0.04372499883,0.2785750031,0.6000499725
20.89782037,3.660000086,-14.35095024,3.36495018,0.04372499883,0.2785750031,0.6000499725
20.91782037,3.660000086,-14.35095024,3.36495018,0.04372499883,0.2785750031,0.6000499725
20.93782037,3.067050219,-13.10700035,2.446050167,0.5677375197,-0.150562495,0.5005000234
20.95782037,3.067050219,-13.10700035,2.446050167,0.5677375197,-0.150562495,0.5005000234
20.97782037,1.036949992,-8.779050827,1.834050059,1.114987493,-0.8483750224,0.7151374817
20.99782037,1.036949992,-8.779050827,1.834050059,1.114987493,-0.8483750224,0.7151374817
21.01782037,1.036949992,-8.779050827,1.834050059,1.114987493,-0.8483750224,0.7151374817
21.03782037,1.036949992,-8.779050827,1.834050059,1.114987493,-0.8483750224,0.7151374817
21.05782037,1.036949992,-8.779050827,1.834050059,1.114987493,-0.8483750224,0.7151374817
21.07782037,0.673050046,-6.06000042,-0.7890000343,1.125574946,-1.492974997,1.072087526
21.09782037,0.673050046,-6.06000042,-0.7890000343,1.125574946,-1.492974997,1.072087526
21.11782037,0.673050046,-6.06000042,-0.7890000343,1.125574946,-1.492974997,1.072087526
21.13782037,0.673050046,-6.06000042,-0.7890000343,1.125574946,-1.492974997,1.072087526
21.15782037,0.673050046,-6.06000042,-0.7890000343,1.125574946,-1.492974997,1.072087526
21.17782037,6.30300045,-7.458000183,0.2250000089,-0.1315875053,0.07782500237,0.1406625062
21.19782037,6.30300045,-7.458000183,0.2250000089,-0.1315875053,0.07782500237,0.1406625062
21.21782037,5.536950111,-7.113000393,1.048050046,-0.5619624853,1.446499944,-1.097249985
21.23782037,5.536950111,-7.113000393,1.048050046,-0.5619624853,1.446499944,-1.097249985
21.25782037,5.536950111,-7.113000393,1.048050046,-0.5619624853,1.446499944,-1.097249985
21.27782037,7.240950108,-8.109000206,1.546050072,-0.9666249752,2.411887407,-2.007912397
21.29782037,7.240950108,-8.109000206,1.546050072,-0.9666249752,2.411887407,-2.007912397
21.31782037,7.911000252,-17.64495087,-0.07995000482,-1.554849982,2.631612539,-2.154762506
21.33782037,7.911000252,-17.64495087,-0.07995000482,-1.554849982,2.631612539,-2.154762506
21.35782037,7.911000252,-17.64495087,-0.07995000482,-1.554849982,2.631612539,-2.154762506
21.37782037,7.911000252,-17.64495087,-0.07995000482,-1.554849982,2.631612539,-2.154762506
21.39782037,7.911000252,-17.64495087,-0.07995000482,-1.554849982,2.631612539,-2.154762506
21.41782037,-1.777050138,-11.97705078,-3.316950083,0.07026249915,-0.4672249854,0.8668000102
21.43782037,-1.777050138,-11.97705078,-3.316950083,0.07026249915,-0.4672249854,0.8668000102
21.45782037,-1.777050138,-11.97705078,-3.316950083,0.07026249915,-0.4672249854,0.8668000102
21.47782037,-1.777050138,-11.97705078,-3.316950083,0.07026249915,-0.4672249854,0.8668000102
21.49782037,-1.777050138,-11.97705078,-3.316950083,0.07026249915,-0.4672249854,0.8668000102
21.51782037,0.1939500123,-7.552950382,-0.751050055,-0.8084999919,-1.114024997,1.363862514
21.53782037,0.1939500123,-7.552950382,-0.751050055,-0.8084999919,-1.114024997,1.363862514
21.55782037,0.06000000238,-6.901950359,0.2820000052,-0.5444999933,-1.210412502,1.680250049
21.57782037,0.06000000238,-6.901950359,0.2820000052,-0.5444999933,-1.210412502,1.680250049
21.59782037,0.06000000238,-6.901950359,0.2820000052,-0.5444999933,-1.210412502,1.680250049
21.61782037,0.06000000238,-6.901950359,0.2820000052,-0.5444999933,-1.210412502,1.680250049
21.63782037,0.06000000238,-6.901950359,0.2820000052,-0.5444999933,-1.210412502,1.680250049
21.65782037,-0.9150000215,-7.591950417,2.025000095,-0.8654249907,-0.4822124839,1.019012451
21.67782037,-0.9150000215,-7.591950417,2.025000095,-0.8654249907,-0.4822124839,1.019012451
21.69782037,0.9600000381,-8.166000366,3.270000219,1.554024935,-1.092299938,0.5695250034
21.71782037,0.9600000381,-8.166000366,3.270000219,1.554024935,-1.092299938,0.5695250034
21.73782037,0.9600000381,-8.166000366,3.270000219,1.554024935,-1.092299938,0.5695250034
21.75782037,9.156000137,-11.5360508,0.7990500331,1.792587519,-0.4372499883,-0.1027124971
21.77782037,9.156000137,-11.5360508,0.7990500331,1.792587519,-0.4372499883,-0.1027124971
21.79782037,9.156000137,-11.5360508,0.7990500331,1.792587519,-0.4372499883,-0.1027124971
21.81782037,9.156000137,-11.5360508,0.7990500331,1.792587519,-0.4372499883,-0.1027124971
21.83782037,9.156000137,-11.5360508,0.7990500331,1.792587519,-0.4372499883,-0.1027124971
21.85782037,9.156000137,-11.5360508,0.7990500331,1.792587519,-0.4372499883,-0.1027124971
21.87782037,9.156000137,-11.5360508,0.7990500331,1.792587519,-0.4372499883,-0.1027124971
21.89782037,2.72205019,-9.487950325,-1.171950102,-2.732675076,4.984650135,-3.018812418
21.91782037,2.72205019,-9.487950325,-1.171950102,-2.732675076,4.984650135,-3.018812418
21.93782037,2.72205019,-9.487950325,-1.171950102,-2.732675076,4.984650135,-3.018812418
21.95782037,2.72205019,-9.487950325,-1.171950102,-2.732675076,4.984650135,-3.018812418
21.97782037,2.72205019,-9.487950325,-1.171950102,-2.732675076,4.984650135,-3.018812418
21.99782037,1.381950021,-10.77000046,2.025000095,-1.527899981,2.174700022,-0.7832000256
22.01782037,1.381950021,-10.77000046,2.025000095,-1.527899981,2.174700022,-0.7832000256
22.03782037,-4.993950367,-7.534050465,-2.377950191,-0.6175125241,1.049674988,0.743324995
22.05782037,-4.993950367,-7.534050465,-2.377950191,-0.6175125241,1.049674988,0.743324995
22.07782037,-4.993950367,-7.534050465,-2.377950191,-0.6175125241,1.049674988,0.743324995
22.09782037,-0.5899500251,-10.06200027,4.954950333,0.6851624846,-0.5490375161,3.005749941
22.11782037,-0.5899500251,-10.06200027,4.954950333,0.6851624846,-0.5490375161,3.005749941
22.13782037,0.3090000153,-10.57905006,4.264950275,1.69509995,-0.9740499854,3.266725063
22.15782037,0.3090000153,-10.57905006,4.264950275,1.69509995,-0.9740499854,3.266725063
22.17782037,0.3090000153,-10.57905006,4.264950275,1.69509995,-0.9740499854,3.266725063
22.19782037,0.3090000153,-10.57905006,4.264950275,1.69509995,-0.9740499854,3.266725063
22.21782037,0.3090000153,-10.57905006,4.264950275,1.69509995,-0.9740499854,3.266725063
22.23782037,2.607000113,-9.028050423,-0.8080500364,0.6693499684,0.3240875006,1.130800009
22.25782037,2.607000113,-9.028050423,-0.8080500364,0.6693499684,0.3240875006,1.130800009
22.27782037,2.856000185,-8.855999947,3.289050102,0.1725624949,1.248362541,0.00549999997
22.29782037,2.856000185,-8.855999947,3.289050102,0.1725624949,1.248362541,0.00549999997
22.31782037,2.856000185,-8.855999947,3.289050102,0.1725624949,1.248362541,0.00549999997
22.33782037,3.92805028,-9.526050568,2.734050035,0.05279999971,2.488749981,-1.462450027
22.35782037,3.92805028,-9.526050568,2.734050035,0.05279999971,2.488749981,-1.462450027
22.37782037,4.84800005,-9.468000412,0.913950026,-0.5665000081,2.077762604,-1.77086246
22.39782037,4.84800005,-9.468000412,0.913950026,-0.5665000081,2.077762604,-1.77086246
22.41782037,4.84800005,-9.468000412,0.913950026,-0.5665000081,2.077762604,-1.77086246
22.43782037,4.84800005,-9.468000412,0.913950026,-0.5665000081,2.077762604,-1.77086246
22.45782037,4.84800005,-9.468000412,0.913950026,-0.5665000081,2.077762604,-1.77086246
22.47782037,4.350000381,-8.722050667,1.393050075,-0.675537467,1.397962451,-1.508237481
22.49782037,4.350000381,-8.722050667,1.393050075,-0.675537467,1.397962451,-1.508237481
22.51782037,4.350000381,-8.722050667,1.393050075,-0.675537467,1.397962451,-1.508237481
22.53782037,4.350000381,-8.722050667,1.393050075,-0.675537467,1.397962451,-1.508237481
22.55782037,4.350000381,-8.722050667,1.393050075,-0.675537467,1.397962451,-1.508237481
22.57782037,4.350000381,-8.722050667,1.393050075,-0.675537467,1.397962451,-1.508237481
22.59782037,4.350000381,-8.722050667,1.393050075,-0.675537467,1.397962451,-1.508237481
22.61782037,4.350000381,-8.722050667,1.393050075,-0.675537467,1.397962451,-1.508237481
22.63782037,4.350000381,-8.722050667,1.393050075,-0.675537467,1.397962451,-1.508237481
22.65782037,4.350000381,-8.722050667,1.393050075,-0.675537467,1.397962451,-1.508237481
22.67782037,4.350000381,-8.722050667,1.393050075,-0.675537467,1.397962451,-1.508237481
22.69782037,4.350000381,-8.722050667,1.393050075,-0.675537467,1.397962451,-1.508237481
22.71782037,2.66505003,-10.65600014,1.623000026,-0.9894499779,-0.03781250119,0.3121249974
22.73782037,2.66505003,-10.65600014,1.623000026,-0.9894499779,-0.03781250119,0.3121249974
22.75782037,-2.256000042,-10.63605022,-1.459050059,-0.8870124817,0.3404499888,0.4802874923
22.77782037,-2.256000042,-10.63605022,-1.459050059,-0.8870124817,0.3404499888,0.4802874923
22.79782037,-2.256000042,-10.63605022,-1.459050059,-0.8870124817,0.3404499888,0.4802874923
22.81782037,-1.642950058,-12.81900024,1.182000041,-0.9526000023,0.05486249924,1.487475038
22.83782037,-1.642950058,-12.81900024,1.182000041,-0.9526000023,0.05486249924,1.487475038
22.85782037,1.5160501,-8.626049995,1.144050002,-0.726000011,0.648450017,1.508649945
22.87782037,1.5160501,-8.626049995,1.144050002,-0.726000011,0.648450017,1.508649945
22.89782037,1.5160501,-8.626049995,1.144050002,-0.726000011,0.648450017,1.508649945
22.91782037,1.860000134,-6.403950214,-0.2719500065,-0.5036625266,1.618787527,1.216737509
22.93782037,1.860000134,-6.403950214,-0.2719500065,-0.5036625266,1.618787527,1.216737509
22.95782037,2.089950085,-7.03605032,0.05295000225,0.09790000319,3.593012571,0.9581000209
22.97782037,2.089950085,-7.03605032,0.05295000225,0.09790000319,3.593012571,0.9581000209
22.99782037,2.089950085,-7.03605032,0.05295000225,0.09790000319,3.593012571,0.9581000209
23.01782037,2.089950085,-7.03605032,0.05295000225,0.09790000319,3.593012571,0.9581000209
23.03782037,2.089950085,-7.03605032,0.05295000225,0.09790000319,3.593012571,0.9581000209
23.05782037,5.154000282,-8.644950867,5.319000244,0.06764999777,2.781625032,-0.872025013
23.07782037,5.154000282,-8.644950867,5.319000244,0.06764999777,2.781625032,-0.872025013
23.09782037,6.150000095,-10.33005047,3.09705019,0.64556247,2.226262569,-2.109112501
23.11782037,6.150000095,-10.33005047,3.09705019,0.64556247,2.226262569,-2.109112501
23.13782037,6.150000095,-10.33005047,3.09705019,0.64556247,2.226262569,-2.109112501
23.15782037,10.49700069,-10.94295025,-6.973950386,0.5329499841,0.936237514,-1.892137527
23.17782037,10.49700069,-10.94295025,-6.973950386,0.5329499841,0.936237514,-1.892137527
23.19782037,6.8770504,-13.24095058,2.503950119,-0.3264249861,-1.054212451,-2.180337429
23.21782037,6.8770504,-13.24095058,2.503950119,-0.3264249861,-1.054212451,-2.180337429
23.23782037,3.871050119,-10.42605019,1.564950109,-0.06242499873,-0.5011875033,-1.397274971
23.25782037,3.871050119,-10.42605019,1.564950109,-0.06242499873,-0.5011875033,-1.397274971
23.27782037,3.871050119,-10.42605019,1.564950109,-0.06242499873,-0.5011875033,-1.397274971
23.29782037,3.871050119,-10.42605019,1.564950109,-0.06242499873,-0.5011875033,-1.397274971
23.31782037,3.871050119,-10.42605019,1.564950109,-0.06242499873,-0.5011875033,-1.397274971
23.33782037,3.871050119,-10.42605019,1.564950109,-0.06242499873,-0.5011875033,-1.397274971
23.35782037,3.871050119,-10.42605019,1.564950109,-0.06242499873,-0.5011875033,-1.397274971
23.37782037,3.871050119,-10.42605019,1.564950109,-0.06242499873,-0.5011875033,-1.397274971
23.39782037,-1.528050065,-12.20700073,4.399050236,-0.0246124994,-0.1673374921,1.122550011
23.41782037,-1.528050065,-12.20700073,4.399050236,-0.0246124994,-0.1673374921,1.122550011
23.43782037,-0.6660000086,-9.009000778,1.52700007,0.9168499708,2.810637474,2.570149899
23.45782037,-0.6660000086,-9.009000778,1.52700007,0.9168499708,2.810637474,2.570149899
23.47782037,-0.6660000086,-9.009000778,1.52700007,0.9168499708,2.810637474,2.570149899
23.49782037,-0.6660000086,-9.009000778,1.52700007,0.9168499708,2.810637474,2.570149899
23.51782037,-0.6660000086,-9.009000778,1.52700007,0.9168499708,2.810637474,2.570149899
23.53782037,4.216050148,-9.679050446,0.2059500068,0.02708750032,0.5814874768,1.473862529
23.55782037,4.216050148,-9.679050446,0.2059500068,0.02708750032,0.5814874768,1.473862529
23.57782037,4.216050148,-9.679050446,0.2059500068,0.02708750032,0.5814874768,1.473862529
23.59782037,4.216050148,-9.679050446,0.2059500068,0.02708750032,0.5814874768,1.473862529
23.61782037,4.216050148,-9.679050446,0.2059500068,0.02708750032,0.5814874768,1.473862529
23.63782037,5.842950344,-7.975050449,-0.7309500575,-0.2052875012,-1.157199979,-0.7191249728
23.65782037,5.842950344,-7.975050449,-0.7309500575,-0.2052875012,-1.157199979,-0.7191249728
23.67782037,5.842950344,-7.975050449,-0.7309500575,-0.2052875012,-1.157199979,-0.7191249728
23.69782037,5.842950344,-7.975050449,-0.7309500575,-0.2052875012,-1.157199979,-0.7191249728
23.71782037,5.842950344,-7.975050449,-0.7309500575,-0.2052875012,-1.157199979,-0.7191249728
23.73782037,5.842950344,-7.975050449,-0.7309500575,-0.2052875012,-1.157199979,-0.7191249728
23.75782037,5.842950344,-7.975050449,-0.7309500575,-0.2052875012,-1.157199979,-0.7191249728
23.77782037,5.842950344,-7.975050449,-0.7309500575,-0.2052875012,-1.157199979,-0.7191249728
23.79782037,5.842950344,-7.975050449,-0.7309500575,-0.2052875012,-1.157199979,-0.7191249728
23.81782037,5.842950344,-7.975050449,-0.7309500575,-0.2052875012,-1.157199979,-0.7191249728
23.83782037,5.842950344,-7.975050449,-0.7309500575,-0.2052875012,-1.157199979,-0.7191249728
23.85782037,5.842950344,-7.975050449,-0.7309500575,-0.2052875012,-1.157199979,-0.7191249728
23.87782037,4.693950176,-6.691950321,1.048050046,-0.3126749992,0.5658124685,-0.5219500065
23.89782037,4.693950176,-6.691950321,1.048050046,-0.3126749992,0.5658124685,-0.5219500065
23.91782037,3.793950081,-6.403950214,-0.5400000215,0.1996500045,1.644500017,-0.1479499936
23.93782037,3.793950081,-6.403950214,-0.5400000215,0.1996500045,1.644500017,-0.1479499936
23.95782037,3.793950081,-6.403950214,-0.5400000215,0.1996500045,1.644500017,-0.1479499936
23.97782037,5.785950184,-10.36800003,-1.822950125,0.0369874984,1.514287472,0.3123999834
23.99782037,5.785950184,-10.36800003,-1.822950125,0.0369874984,1.514287472,0.3123999834
24.01782037,6.82005024,-18.73695183,-2.991000175,-0.5094375014,0.4372499883,0.2591874897
24.03782037,6.82005024,-18.73695183,-2.991000175,-0.5094375014,0.4372499883,0.2591874897
24.05782037,6.82005024,-18.73695183,-2.991000175,-0.5094375014,0.4372499883,0.2591874897
24.07782037,6.82005024,-18.73695183,-2.991000175,-0.5094375014,0.4372499883,0.2591874897
24.09782037,6.82005024,-18.73695183,-2.991000175,-0.5094375014,0.4372499883,0.2591874897
24.11782037,3.29700017,-8.109000206,-1.555050015,-1.060537457,-0.05472499877,0.8874250054
24.13782037,3.29700017,-8.109000206,-1.555050015,-1.060537457,-0.05472499877,0.8874250054
24.15782037,3.29700017,-8.109000206,-1.555050015,-1.060537457,-0.05472499877,0.8874250054
24.17782037,3.29700017,-8.109000206,-1.555050015,-1.060537457,-0.05472499877,0.8874250054
24.19782037,3.29700017,-8.109000206,-1.555050015,-1.060537457,-0.05472499877,0.8874250054
24.21782037,-0.6660000086,-7.495950222,-0.6739500165,-1.000450015,0.7576249838,0.8801375031
24.23782037,-0.6660000086,-7.495950222,-0.6739500165,-1.000450015,0.7576249838,0.8801375031
24.25782037,-1.068000078,-4.432050228,0.3019500077,-0.8051999807,1.994850039,1.57327497
24.27782037,-1.068000078,-4.432050228,0.3019500077,-0.8051999807,1.994850039,1.57327497
24.29782037,-1.068000078,-4.432050228,0.3019500077,-0.8051999807,1.994850039,1.57327497
24.31782037,-1.068000078,-4.432050228,0.3019500077,-0.8051999807,1.994850039,1.57327497
24.33782037,-1.068000078,-4.432050228,0.3019500077,-0.8051999807,1.994850039,1.57327497
24.35782037,3.507000208,-2.497950077,-0.1189500093,-0.3093749881,1.048437476,0.7323250175
24.37782037,3.507000208,-2.497950077,-0.1189500093,-0.3093749881,1.048437476,0.7323250175
24.39782037,9.463050842,-10.80900097,0.8569500446,0.2641375065,-0.9121749997,-0.9926124811
24.41782037,9.463050842,-10.80900097,0.8569500446,0.2641375065,-0.9121749997,-0.9926124811
24.43782037,9.463050842,-10.80900097,0.8569500446,0.2641375065,-0.9121749997,-0.9926124811
24.45782037,3.889950275,-11.15295029,-5.518950462,0.1966249943,-2.232037544,-2.424949884
24.47782037,3.889950275,-11.15295029,-5.518950462,0.1966249943,-2.232037544,-2.424949884
24.49782037,3.889950275,-11.15295029,-5.518950462,0.1966249943,-2.232037544,-2.424949884
24.51782037,3.889950275,-11.15295029,-5.518950462,0.1966249943,-2.232037544,-2.424949884
24.53782037,3.889950275,-11.15295029,-5.518950462,0.1966249943,-2.232037544,-2.424949884
24.55782037,3.889950275,-11.15295029,-5.518950462,0.1966249943,-2.232037544,-2.424949884
24.57782037,3.889950275,-11.15295029,-5.518950462,0.1966249943,-2.232037544,-2.424949884
24.59782037,3.889950275,-11.15295029,-5.518950462,0.1966249943,-2.232037544,-2.424949884
24.61782037,3.889950275,-11.15295029,-5.518950462,0.1966249943,-2.232037544,-2.424949884
24.63782037,3.889950275,-11.15295029,-5.518950462,0.1966249943,-2.232037544,-2.424949884
24.65782037,3.889950275,-11.15295029,-5.518950462,0.1966249943,-2.232037544,-2.424949884
24.67782037,3.889950275,-11.15295029,-5.518950462,0.1966249943,-2.232037544,-2.424949884
24.69782037,-0.6280500293,-12.01500034,0.913950026,0.4061749876,1.635287523,1.381600022
24.71782037,-0.6280500293,-12.01500034,0.913950026,0.4061749876,1.635287523,1.381600022
24.73782037,0.4429500103,-9.640950203,1.048050046,0.2455749959,1.898599982,1.073737502
24.75782037,0.4429500103,-9.640950203,1.048050046,0.2455749959,1.898599982,1.073737502
24.77782037,0.4429500103,-9.640950203,1.048050046,0.2455749959,1.898599982,1.073737502
24.79782037,1.650000095,-6.328050137,1.336050034,0.1297999918,1.725075006,1.104537487
24.81782037,1.650000095,-6.328050137,1.336050034,0.1297999918,1.725075006,1.104537487
24.83782037,1.650000095,-6.328050137,1.336050034,0.1297999918,1.725075006,1.104537487
24.85782037,1.650000095,-6.328050137,1.336050034,0.1297999918,1.725075006,1.104537487
24.87782037,1.650000095,-6.328050137,1.336050034,0.1297999918,1.725075006,1.104537487
24.89782037,1.650000095,-6.328050137,1.336050034,0.1297999918,1.725075006,1.104537487
24.91782037,1.650000095,-6.328050137,1.336050034,0.1297999918,1.725075006,1.104537487
24.93782037,5.460000038,-4.297950268,0.03405000269,0.03932499886,-1.617412448,-1.621399999
24.95782037,5.460000038,-4.297950268,0.03405000269,0.03932499886,-1.617412448,-1.621399999
24.97782037,3.085950136,-7.936050415,2.311950207,0.3026374876,-1.472900033,-2.557775021
24.99782037,3.085950136,-7.936050415,2.311950207,0.3026374876,-1.472900033,-2.557775021
25.01782037,3.085950136,-7.936050415,2.311950207,0.3026374876,-1.472900033,-2.557775021
25.03782037,3.660000086,-7.495950222,3.211950064,0.3957250118,-0.6942374706,-1.880587459
25.05782037,3.660000086,-7.495950222,3.211950064,0.3957250118,-0.6942374706,-1.880587459
25.07782037,3.316050053,-5.06400013,1.048050046,0.4835875034,-0.1280124933,-1.327012539
25.09782037,3.316050053,-5.06400013,1.048050046,0.4835875034,-0.1280124933,-1.327012539
25.11782037,3.316050053,-5.06400013,1.048050046,0.4835875034,-0.1280124933,-1.327012539
25.13782037,3.316050053,-5.06400013,1.048050046,0.4835875034,-0.1280124933,-1.327012539
25.15782037,3.316050053,-5.06400013,1.048050046,0.4835875034,-0.1280124933,-1.327012539
25.17782037,3.316050053,-5.06400013,1.048050046,0.4835875034,-0.1280124933,-1.327012539
25.19782037,3.316050053,-5.06400013,1.048050046,0.4835875034,-0.1280124933,-1.327012539
25.21782037,3.316050053,-5.06400013,1.048050046,0.4835875034,-0.1280124933,-1.327012539
25.23782037,3.316050053,-5.06400013,1.048050046,0.4835875034,-0.1280124933,-1.327012539
25.25782037,3.316050053,-5.06400013,1.048050046,0.4835875034,-0.1280124933,-1.327012539
25.27782037,1.803000093,-8.224050522,-0.2140500098,-0.6895624995,0.4521000087,0.8373749852
25.29782037,1.803000093,-8.224050522,-0.2140500098,-0.6895624995,0.4521000087,0.8373749852
25.31782037,1.438950062,-8.797950745,-0.8850000501,-1.009799957,0.7937874794,0.6740249991
25.33782037,1.438950062,-8.797950745,-0.8850000501,-1.009799957,0.7937874794,0.6740249991
25.35782037,1.438950062,-8.797950745,-0.8850000501,-1.009799957,0.7937874794,0.6740249991
25.37782037,1.438950062,-8.797950745,-0.8850000501,-1.009799957,0.7937874794,0.6740249991
25.39782037,1.438950062,-8.797950745,-0.8850000501,-1.009799957,0.7937874794,0.6740249991
25.41782037,0.2710500062,-4.260000229,1.201950073,-0.9828500152,2.561762571,1.060675025
25.43782037,0.2710500062,-4.260000229,1.201950073,-0.9828500152,2.561762571,1.060675025
25.45782037,2.550000191,-2.479050159,0.01395000052,-0.7561125159,2.144037485,0.9466875196
25.47782037,2.550000191,-2.479050159,0.01395000052,-0.7561125159,2.144037485,0.9466875196
25.49782037,2.550000191,-2.479050159,0.01395000052,-0.7561125159,2.144037485,0.9466875196
25.51782037,2.550000191,-2.479050159,0.01395000052,-0.7561125159,2.144037485,0.9466875196
25.53782037,2.550000191,-2.479050159,0.01395000052,-0.7561125159,2.144037485,0.9466875196
25.55782037,2.550000191,-2.479050159,0.01395000052,-0.7561125159,2.144037485,0.9466875196
25.57782037,2.550000191,-2.479050159,0.01395000052,-0.7561125159,2.144037485,0.9466875196
25.59782037,2.550000191,-2.479050159,0.01395000052,-0.7561125159,2.144037485,0.9466875196
25.61782037,2.971050024,-12.57105064,-3.853050232,0.2069374919,-2.957074881,-1.856937528
25.63782037,2.971050024,-12.57105064,-3.853050232,0.2069374919,-2.957074881,-1.856937528
25.65782037,2.971050024,-12.57105064,-3.853050232,0.2069374919,-2.957074881,-1.856937528
25.67782037,2.971050024,-12.57105064,-3.853050232,0.2069374919,-2.957074881,-1.856937528
25.69782037,2.971050024,-12.57105064,-3.853050232,0.2069374919,-2.957074881,-1.856937528
25.71782037,2.971050024,-12.57105064,-3.853050232,0.2069374919,-2.957074881,-1.856937528
25.73782037,2.971050024,-12.57105064,-3.853050232,0.2069374919,-2.957074881,-1.856937528
25.75782037,5.977050304,-11.21100044,2.044049978,-0.06311249733,-1.33375001,0.202124998
25.77782037,5.977050304,-11.21100044,2.044049978,-0.06311249733,-1.33375001,0.202124998
25.79782037,5.748000145,-14.37105083,3.058950186,0.2828375101,-0.006737499963,0.7555624843
25.81782037,5.748000145,-14.37105083,3.058950186,0.2828375101,-0.006737499963,0.7555624843
25.83782037,5.748000145,-14.37105083,3.058950186,0.2828375101,-0.006737499963,0.7555624843
25.85782037,6.207000256,-18.54495049,2.025000095,0.7526749969,1.60641253,0.7742624879
25.87782037,6.207000256,-18.54495049,2.025000095,0.7526749969,1.60641253,0.7742624879
25.89782037,1.860000134,-9.966000557,3.49905014,0.8039624691,1.628962517,0.08937499672
25.91782037,1.860000134,-9.966000557,3.49905014,0.8039624691,1.628962517,0.08937499672
25.93782037,1.860000134,-9.966000557,3.49905014,0.8039624691,1.628962517,0.08937499672
25.95782037,1.860000134,-9.966000557,3.49905014,0.8039624691,1.628962517,0.08937499672
25.97782037,1.860000134,-9.966000557,3.49905014,0.8039624691,1.628962517,0.08937499672
25.99782037,1.093950033,-7.956000328,1.144050002,0.640612483,1.460525036,0.2899875045
26.01782037,1.093950033,-7.956000328,1.144050002,0.640612483,1.460525036,0.2899875045
26.03782037,1.093950033,-7.956000328,1.144050002,0.640612483,1.460525036,0.2899875045
26.05782037,1.093950033,-7.956000328,1.144050002,0.640612483,1.460525036,0.2899875045
26.07782037,1.093950033,-7.956000328,1.144050002,0.640612483,1.460525036,0.2899875045
26.09782037,7.318050385,-5.734050274,-1.383000016,-0.261937499,-0.1722874939,0.02076249942
26.11782037,7.318050385,-5.734050274,-1.383000016,-0.261937499,-0.1722874939,0.02076249942
26.13782037,5.709000111,-5.599950314,-0.004050000105,-0.2829749882,-0.9338999987,-0.8833000064
26.15782037,5.709000111,-5.599950314,-0.004050000105,-0.2829749882,-0.9338999987,-0.8833000064
26.17782037,5.709000111,-5.599950314,-0.004050000105,-0.2829749882,-0.9338999987,-0.8833000064
26.19782037,5.709000111,-5.599950314,-0.004050000105,-0.2829749882,-0.9338999987,-0.8833000064
26.21782037,5.709000111,-5.599950314,-0.004050000105,-0.2829749882,-0.9338999987,-0.8833000064
26.23782037,4.84800005,-7.897950172,1.162950039,0.00838750042,-0.9931625128,-1.821324944
26.25782037,4.84800005,-7.897950172,1.162950039,0.00838750042,-0.9931625128,-1.821324944
26.27782037,4.84800005,-7.897950172,1.162950039,0.00838750042,-0.9931625128,-1.821324944
26.29782037,4.84800005,-7.897950172,1.162950039,0.00838750042,-0.9931625128,-1.821324944
26.31782037,4.84800005,-7.897950172,1.162950039,0.00838750042,-0.9931625128,-1.821324944
26.33782037,8.218050003,-11.67105103,0.8380500674,0.5341874957,0.7251750231,-0.7463499904
26.35782037,8.218050003,-11.67105103,0.8380500674,0.5341874957,0.7251750231,-0.7463499904
26.37782037,5.230950356,-16.43895149,-1.651050091,0.1476749927,0.5803874731,0.2452999949
26.39782037,5.230950356,-16.43895149,-1.651050091,0.1476749927,0.5803874731,0.2452999949
26.41782037,5.230950356,-16.43895149,-1.651050091,0.1476749927,0.5803874731,0.2452999949
26.43782037,5.230950356,-16.43895149,-1.651050091,0.1476749927,0.5803874731,0.2452999949
26.45782037,5.230950356,-16.43895149,-1.651050091,0.1476749927,0.5803874731,0.2452999949
26.47782037,3.603000164,-8.626049995,-0.8460000157,-1.144549966,0.1820500046,1.600912452
26.49782037,3.603000164,-8.626049995,-0.8460000157,-1.144549966,0.1820500046,1.600912452
26.51782037,6.763050556,-8.740950584,-1.383000016,-1.012962461,0.3306874931,1.069474936
26.53782037,6.763050556,-8.740950584,-1.383000016,-1.012962461,0.3306874931,1.069474936
26.55782037,6.763050556,-8.740950584,-1.383000016,-1.012962461,0.3306874931,1.069474936
26.57782037,6.763050556,-8.740950584,-1.383000016,-1.012962461,0.3306874931,1.069474936
26.59782037,6.763050556,-8.740950584,-1.383000016,-1.012962461,0.3306874931,1.069474936
26.61782037,6.763050556,-8.740950584,-1.383000016,-1.012962461,0.3306874931,1.069474936
26.63782037,6.763050556,-8.740950584,-1.383000016,-1.012962461,0.3306874931,1.069474936
26.65782037,6.763050556,-8.740950584,-1.383000016,-1.012962461,0.3306874931,1.069474936
26.67782037,-0.4750500321,-5.524050236,-0.1189500093,-0.2718375027,2.068962574,1.149500012
26.69782037,-0.4750500321,-5.524050236,-0.1189500093,-0.2718375027,2.068962574,1.149500012
26.71782037,1.055999994,-7.419000149,1.182000041,0.2022625059,0.6962999701,0.176412493
26.73782037,1.055999994,-7.419000149,1.182000041,0.2022625059,0.6962999701,0.176412493
26.75782037,1.055999994,-7.419000149,1.182000041,0.2022625059,0.6962999701,0.176412493
26.77782037,1.055999994,-7.419000149,1.182000041,0.2022625059,0.6962999701,0.176412493
26.79782037,1.055999994,-7.419000149,1.182000041,0.2022625059,0.6962999701,0.176412493
26.81782037,7.48995018,-9.334050179,-2.934000254,0.4444000125,-0.1527625024,0.4831750095
26.83782037,7.48995018,-9.334050179,-2.934000254,0.4444000125,-0.1527625024,0.4831750095
26.85782037,4.636950016,-7.591950417,-3.565950155,0.3473249972,-2.66268754,-0.9535624981
26.87782037,4.636950016,-7.591950417,-3.565950155,0.3473249972,-2.66268754,-0.9535624981
26.89782037,4.636950016,-7.591950417,-3.565950155,0.3473249972,-2.66268754,-0.9535624981
26.91782037,2.779950142,-7.324050426,-0.8269500136,0.4006749988,-3.067212582,-1.628687501
26.93782037,2.779950142,-7.324050426,-0.8269500136,0.4006749988,-3.067212582,-1.628687501
26.95782037,2.703000069,-6.040950298,0.9529500604,0.4090625048,-2.266000032,-1.360700011
26.97782037,2.703000069,-6.040950298,0.9529500604,0.4090625048,-2.266000032,-1.360700011
26.99782037,2.703000069,-6.040950298,0.9529500604,0.4090625048,-2.266000032,-1.360700011
27.01782037,2.703000069,-6.040950298,0.9529500604,0.4090625048,-2.266000032,-1.360700011
27.03782037,2.703000069,-6.040950298,0.9529500604,0.4090625048,-2.266000032,-1.360700011
27.05782037,6.475050449,-15.67305088,4.476000309,0.5306124687,-0.4307875037,-0.5061374903
27.07782037,6.475050449,-15.67305088,4.476000309,0.5306124687,-0.4307875037,-0.5061374903
27.09782037,6.475050449,-15.67305088,4.476000309,0.5306124687,-0.4307875037,-0.5061374903
27.11782037,6.475050449,-15.67305088,4.476000309,0.5306124687,-0.4307875037,-0.5061374903
27.13782037,6.475050449,-15.67305088,4.476000309,0.5306124687,-0.4307875037,-0.5061374903
27.15782037,2.856000185,-16.3240509,1.795050144,1.02313745,1.712287545,0.7816874981
27.17782037,2.856000185,-16.3240509,1.795050144,1.02313745,1.712287545,0.7816874981
27.19782037,2.856000185,-16.3240509,1.795050144,1.02313745,1.712287545,0.7816874981
27.21782037,2.856000185,-16.3240509,1.795050144,1.02313745,1.712287545,0.7816874981
27.23782037,2.856000185,-16.3240509,1.795050144,1.02313745,1.712287545,0.7816874981
27.25782037,2.856000185,-16.3240509,1.795050144,1.02313745,1.712287545,0.7816874981
27.27782037,2.856000185,-16.3240509,1.795050144,1.02313745,1.712287545,0.7816874981
27.29782037,2.281949997,-6.117000103,1.813950062,-0.08621250093,1.185112476,1.247674942
27.31782037,2.281949997,-6.117000103,1.813950062,-0.08621250093,1.185112476,1.247674942
27.33782037,2.281949997,-6.117000103,1.813950062,-0.08621250093,1.185112476,1.247674942
27.35782037,2.281949997,-6.117000103,1.813950062,-0.08621250093,1.185112476,1.247674942
27.37782037,2.281949997,-6.117000103,1.813950062,-0.08621250093,1.185112476,1.247674942
27.39782037,7.126050472,-5.179050446,-0.2140500098,-0.2673000097,-0.3425124884,-0.3244999945
27.41782037,7.126050472,-5.179050446,-0.2140500098,-0.2673000097,-0.3425124884,-0.3244999945
27.43782037,3.142950058,-6.768000126,1.660950065,-0.06091250107,-1.162150025,-1.928162456
27.45782037,3.142950058,-6.768000126,1.660950065,-0.06091250107,-1.162150025,-1.928162456
27.47782037,3.142950058,-6.768000126,1.660950065,-0.06091250107,-1.162150025,-1.928162456
27.49782037,7.069050312,-7.228050232,0.8190000653,0.8362749815,0.005912499968,-2.288825035
27.51782037,7.069050312,-7.228050232,0.8190000653,0.8362749815,0.005912499968,-2.288825035
27.53782037,10.07505035,-11.07705021,2.33100009,0.8097375035,0.03547500074,-2.586512566
27.55782037,10.07505035,-11.07705021,2.33100009,0.8097375035,0.03547500074,-2.586512566
27.57782037,10.07505035,-11.07705021,2.33100009,0.8097375035,0.03547500074,-2.586512566
27.59782037,10.07505035,-11.07705021,2.33100009,0.8097375035,0.03547500074,-2.586512566
27.61782037,10.07505035,-11.07705021,2.33100009,0.8097375035,0.03547500074,-2.586512566
27.63782037,2.491950035,-19.23405075,-3.622950077,-0.5643000007,0.7229750156,0.5872625113
27.65782037,2.491950035,-19.23405075,-3.622950077,-0.5643000007,0.7229750156,0.5872625113
27.67782037,2.491950035,-19.23405075,-3.622950077,-0.5643000007,0.7229750156,0.5872625113
27.69782037,2.491950035,-19.23405075,-3.622950077,-0.5643000007,0.7229750156,0.5872625113
27.71782037,2.491950035,-19.23405075,-3.622950077,-0.5643000007,0.7229750156,0.5872625113
27.73782037,4.522050381,-7.534050465,-0.865950048,-1.226912498,0.2172500044,0.4761624932
27.75782037,4.522050381,-7.534050465,-0.865950048,-1.226912498,0.2172500044,0.4761624932
27.77782037,-0.3790500164,-8.146950722,-0.5590500236,-1.375550032,0.4839999974,0.9014499784
27.79782037,-0.3790500164,-8.146950722,-0.5590500236,-1.375550032,0.4839999974,0.9014499784
27.81782037,-0.3790500164,-8.146950722,-0.5590500236,-1.375550032,0.4839999974,0.9014499784
27.83782037,-0.3790500164,-8.146950722,-0.5590500236,-1.375550032,0.4839999974,0.9014499784
27.85782037,-0.3790500164,-8.146950722,-0.5590500236,-1.375550032,0.4839999974,0.9014499784
27.87782037,-0.4170000255,-3.819000244,-0.06105000153,-1.399474978,1.181537509,1.281224966
27.89782037,-0.4170000255,-3.819000244,-0.06105000153,-1.399474978,1.181537509,1.281224966
27.91782037,-0.4170000255,-3.819000244,-0.06105000153,-1.399474978,1.181537509,1.281224966
27.93782037,-0.4170000255,-3.819000244,-0.06105000153,-1.399474978,1.181537509,1.281224966
27.95782037,-0.4170000255,-3.819000244,-0.06105000153,-1.399474978,1.181537509,1.281224966
27.97782037,5.748000145,-8.722050667,-0.04200000316,0.5070999861,0.9942625165,0.7294374704
27.99782037,5.748000145,-8.722050667,-0.04200000316,0.5070999861,0.9942625165,0.7294374704
28.01782037,7.030950546,-7.611000538,-1.669950128,0.5649874806,-0.9861499667,-0.1662375033
28.03782037,7.030950546,-7.611000538,-1.669950128,0.5649874806,-0.9861499667,-0.1662375033
28.05782037,7.030950546,-7.611000538,-1.669950128,0.5649874806,-0.9861499667,-0.1662375033
28.07782037,7.030950546,-7.611000538,-1.669950128,0.5649874806,-0.9861499667,-0.1662375033
28.09782037,7.030950546,-7.611000538,-1.669950128,0.5649874806,-0.9861499667,-0.1662375033
28.11782037,2.128050089,-9.411000252,-1.477950096,0.7937874794,-2.751924992,-1.650137544
28.13782037,2.128050089,-9.411000252,-1.477950096,0.7937874794,-2.751924992,-1.650137544
28.15782037,2.128050089,-9.411000252,-1.477950096,0.7937874794,-2.751924992,-1.650137544
28.17782037,2.128050089,-9.411000252,-1.477950096,0.7937874794,-2.751924992,-1.650137544
28.19782037,2.128050089,-9.411000252,-1.477950096,0.7937874794,-2.751924992,-1.650137544
28.21782037,5.499000072,-10.65600014,0.5509500504,-0.05788749829,-2.0462749,-0.5531625152
28.23782037,5.499000072,-10.65600014,0.5509500504,-0.05788749829,-2.0462749,-0.5531625152
28.25782037,6.265050411,-12.36000061,2.734050035,0.5758500099,-0.04455000162,0.1457500011
28.27782037,6.265050411,-12.36000061,2.734050035,0.5758500099,-0.04455000162,0.1457500011
28.29782037,6.265050411,-12.36000061,2.734050035,0.5758500099,-0.04455000162,0.1457500011
28.31782037,5.614050388,-13.85400105,1.660950065,0.6873624921,1.000037551,0.4753375053
28.33782037,5.614050388,-13.85400105,1.660950065,0.6873624921,1.000037551,0.4753375053
28.35782037,4.081950188,-18.44895172,0.8760000467,0.6006000042,1.191849947,0.2928749919
28.37782037,4.081950188,-18.44895172,0.8760000467,0.6006000042,1.191849947,0.2928749919
28.39782037,0.2329500169,-10.63605022,2.676000118,0.4823499918,1.149637461,0.3595624864
28.41782037,0.2329500169,-10.63605022,2.676000118,0.4823499918,1.149637461,0.3595624864
28.43782037,0.2329500169,-10.63605022,2.676000118,0.4823499918,1.149637461,0.3595624864
28.45782037,-0.7810500264,-6.730050087,0.3210000098,0.5062749982,1.464100003,0.5545374751
28.47782037,-0.7810500264,-6.730050087,0.3210000098,0.5062749982,1.464100003,0.5545374751
28.49782037,-0.7810500264,-6.730050087,0.3210000098,0.5062749982,1.464100003,0.5545374751
28.51782037,-0.7810500264,-6.730050087,0.3210000098,0.5062749982,1.464100003,0.5545374751
28.53782037,-0.7810500264,-6.730050087,0.3210000098,0.5062749982,1.464100003,0.5545374751
28.55782037,6.571050167,-6.481050491,-1.842000127,-0.5193374753,0.5033875108,0.781825006
28.57782037,6.571050167,-6.481050491,-1.842000127,-0.5193374753,0.5033875108,0.781825006
28.59782037,6.571050167,-6.481050491,-1.842000127,-0.5193374753,0.5033875108,0.781825006
28.61782037,6.571050167,-6.481050491,-1.842000127,-0.5193374753,0.5033875108,0.781825006
28.63782037,6.571050167,-6.481050491,-1.842000127,-0.5193374753,0.5033875108,0.781825006
28.65782037,6.571050167,-6.481050491,-1.842000127,-0.5193374753,0.5033875108,0.781825006
28.67782037,6.571050167,-6.481050491,-1.842000127,-0.5193374753,0.5033875108,0.781825006
28.69782037,5.001000404,-7.630050182,2.485050201,0.3106124997,-1.120900035,-1.765912533
28.71782037,5.001000404,-7.630050182,2.485050201,0.3106124997,-1.120900035,-1.765912533
28.73782037,5.001000404,-7.630050182,2.485050201,0.3106124997,-1.120900035,-1.765912533
28.75782037,5.001000404,-7.630050182,2.485050201,0.3106124997,-1.120900035,-1.765912533
28.77782037,5.001000404,-7.630050182,2.485050201,0.3106124997,-1.120900035,-1.765912533
28.79782037,7.663050175,-13.66200066,0.8950500488,0.5467000008,-0.04881250113,-1.229112506
28.81782037,7.663050175,-13.66200066,0.8950500488,0.5467000008,-0.04881250113,-1.229112506
28.83782037,5.9010005,-18.75600052,2.178000212,-0.1132999957,0.1006499976,0.006599999964
28.85782037,5.9010005,-18.75600052,2.178000212,-0.1132999957,0.1006499976,0.006599999964
28.87782037,5.9010005,-18.75600052,2.178000212,-0.1132999957,0.1006499976,0.006599999964
28.89782037,5.9010005,-18.75600052,2.178000212,-0.1132999957,0.1006499976,0.006599999964
28.91782037,5.9010005,-18.75600052,2.178000212,-0.1132999957,0.1006499976,0.006599999964
28.93782037,0.8839500546,-5.140950203,-0.6169500351,-0.7204999924,0.5747500062,0.7404375076
28.95782037,0.8839500546,-5.140950203,-0.6169500351,-0.7204999924,0.5747500062,0.7404375076
28.97782037,0.8839500546,-5.140950203,-0.6169500351,-0.7204999924,0.5747500062,0.7404375076
28.99782037,0.8839500546,-5.140950203,-0.6169500351,-0.7204999924,0.5747500062,0.7404375076
29.01782037,0.8839500546,-5.140950203,-0.6169500351,-0.7204999924,0.5747500062,0.7404375076
29.03782037,-0.5130000114,-6.022050381,-1.038000107,-1.057924986,1.19501245,1.000174999
29.05782037,-0.5130000114,-6.022050381,-1.038000107,-1.057924986,1.19501245,1.000174999
29.07782037,-0.5130000114,-6.022050381,-1.038000107,-1.057924986,1.19501245,1.000174999
29.09782037,-0.5130000114,-6.022050381,-1.038000107,-1.057924986,1.19501245,1.000174999
29.11782037,-0.5130000114,-6.022050381,-1.038000107,-1.057924986,1.19501245,1.000174999
29.13782037,1.687950134,-4.240950108,0.1870500147,-1.23763752,0.4559499919,0.937474966
29.15782037,1.687950134,-4.240950108,0.1870500147,-1.23763752,0.4559499919,0.937474966
29.17782037,4.081950188,-8.836050034,0.2629500031,0.04399999976,0.287787497,0.5487625003
29.19782037,4.081950188,-8.836050034,0.2629500031,0.04399999976,0.287787497,0.5487625003
29.21782037,6.30300045,-7.552950382,-1.822950125,0.2946625054,-0.8234875202,0.1985500008
29.23782037,6.30300045,-7.552950382,-1.822950125,0.2946625054,-0.8234875202,0.1985500008
29.25782037,6.30300045,-7.552950382,-1.822950125,0.2946625054,-0.8234875202,0.1985500008
29.27782037,4.828050137,-10.63605022,0.01395000052,0.6811749935,-2.548424959,-1.293324947
29.29782037,4.828050137,-10.63605022,0.01395000052,0.6811749935,-2.548424959,-1.293324947
29.31782037,4.828050137,-10.63605022,0.01395000052,0.6811749935,-2.548424959,-1.293324947
29.33782037,4.828050137,-10.63605022,0.01395000052,0.6811749935,-2.548424959,-1.293324947
29.35782037,4.828050137,-10.63605022,0.01395000052,0.6811749935,-2.548424959,-1.293324947
29.37782037,6.954000473,-9.37305069,2.829000235,0.1395625025,-2.260637522,-0.7436000109
29.39782037,6.954000473,-9.37305069,2.829000235,0.1395625025,-2.260637522,-0.7436000109
29.41782037,6.954000473,-9.37305069,2.829000235,0.1395625025,-2.260637522,-0.7436000109
29.43782037,6.954000473,-9.37305069,2.829000235,0.1395625025,-2.260637522,-0.7436000109
29.45782037,6.954000473,-9.37305069,2.829000235,0.1395625025,-2.260637522,-0.7436000109
29.47782037,6.954000473,-9.37305069,2.829000235,0.1395625025,-2.260637522,-0.7436000109
29.49782037,6.954000473,-9.37305069,2.829000235,0.1395625025,-2.260637522,-0.7436000109
29.51782037,2.338950157,-13.37505054,1.35495007,0.5871250033,1.08267498,0.365337491
29.53782037,2.338950157,-13.37505054,1.35495007,0.5871250033,1.08267498,0.365337491
29.55782037,2.338950157,-13.37505054,1.35495007,0.5871250033,1.08267498,0.365337491
29.57782037,2.338950157,-13.37505054,1.35495007,0.5871250033,1.08267498,0.365337491
29.59782037,2.338950157,-13.37505054,1.35495007,0.5871250033,1.08267498,0.365337491
29.61782037,-1.413000107,-6.922050476,0.9910500646,0.3811500072,1.972849965,0.6355249882
29.63782037,-1.413000107,-6.922050476,0.9910500646,0.3811500072,1.972849965,0.6355249882
29.65782037,2.683950186,-6.270000458,-3.336000204,0.3811500072,1.972849965,0.6355249882
29.65782037,2.683950186,-6.270000458,-3.336000204,0.3811500072,1.972849965,0.6355249882
29.69782037,2.683950186,-6.270000458,-3.336000204,0.3811500072,1.972849965,0.6355249882
29.71782037,2.683950186,-6.270000458,-3.336000204,0.3811500072,1.972849965,0.6355249882
29.73782037,2.683950186,-6.270000458,-3.336000204,0.3811500072,1.972849965,0.6355249882
29.75782037,9.193950653,-7.381050587,2.005950212,-0.9637374878,-0.2355374992,-0.02736249939
29.77782037,9.193950653,-7.381050587,2.005950212,-0.9637374878,-0.2355374992,-0.02736249939
29.79782037,9.193950653,-7.381050587,2.005950212,-0.9637374878,-0.2355374992,-0.02736249939
29.81782037,9.193950653,-7.381050587,2.005950212,-0.9637374878,-0.2355374992,-0.02736249939
29.83782037,9.193950653,-7.381050587,2.005950212,-0.9637374878,-0.2355374992,-0.02736249939
29.85782037,7.279950142,-17.14695168,0.913950026,0.2257750034,-1.104262471,-2.469774961
29.87782037,7.279950142,-17.14695168,0.913950026,0.2257750034,-1.104262471,-2.469774961
29.89782037,2.242950201,-21.22605133,-2.72295022,-0.05596249923,-0.5317124724,-1.136299968
29.91782037,2.242950201,-21.22605133,-2.72295022,-0.05596249923,-0.5317124724,-1.136299968
29.93782037,2.242950201,-21.22605133,-2.72295022,-0.05596249923,-0.5317124724,-1.136299968
29.95782037,2.242950201,-21.22605133,-2.72295022,-0.05596249923,-0.5317124724,-1.136299968
29.97782037,2.242950201,-21.22605133,-2.72295022,-0.05596249923,-0.5317124724,-1.136299968
29.99782037,0.538950026,-4.699950218,-4.351050377,-0.9798250198,0.7679374814,1.535599947
30.01782037,0.538950026,-4.699950218,-4.351050377,-0.9798250198,0.7679374814,1.535599947
30.03782037,0.538950026,-4.699950218,-4.351050377,-0.9798250198,0.7679374814,1.535599947
30.05782037,0.538950026,-4.699950218,-4.351050377,-0.9798250198,0.7679374814,1.535599947
30.07782037,0.538950026,-4.699950218,-4.351050377,-0.9798250198,0.7679374814,1.535599947
30.09782037,0.2140500098,-9.12405014,0.9340500236,-1.609025002,1.441550016,2.057962418
30.11782037,0.2140500098,-9.12405014,0.9340500236,-1.609025002,1.441550016,2.057962418
30.13782037,0.2140500098,-9.12405014,0.9340500236,-1.609025002,1.441550016,2.057962418
30.15782037,0.2140500098,-9.12405014,0.9340500236,-1.609025002,1.441550016,2.057962418
30.17782037,0.2140500098,-9.12405014,0.9340500236,-1.609025002,1.441550016,2.057962418
30.19782037,3.69900012,-9.448950768,-0.07995000482,0.2997500002,1.291262507,0.4628250003
30.21782037,3.69900012,-9.448950768,-0.07995000482,0.2997500002,1.291262507,0.4628250003
30.23782037,3.69900012,-9.448950768,-0.07995000482,0.2997500002,1.291262507,0.4628250003
30.25782037,3.69900012,-9.448950768,-0.07995000482,0.2997500002,1.291262507,0.4628250003
30.27782037,3.69900012,-9.448950768,-0.07995000482,0.2997500002,1.291262507,0.4628250003
30.29782037,3.69900012,-9.448950768,-0.07995000482,0.2997500002,1.291262507,0.4628250003
30.31782037,3.69900012,-9.448950768,-0.07995000482,0.2997500002,1.291262507,0.4628250003
30.33782037,3.92805028,-9.448950768,2.350950003,0.7772874832,0.1534499973,-0.4969249964
30.35782037,3.92805028,-9.448950768,2.350950003,0.7772874832,0.1534499973,-0.4969249964
30.37782037,6.838950157,-8.242950439,4.76295042,0.8648750186,0.07493750006,-1.071674943
30.39782037,6.838950157,-8.242950439,4.76295042,0.8648750186,0.07493750006,-1.071674943
30.41782037,6.838950157,-8.242950439,4.76295042,0.8648750186,0.07493750006,-1.071674943
30.43782037,7.146000385,-12.81900024,-6.322950363,1.31408751,0.4397250116,-1.558012486
30.45782037,7.146000385,-12.81900024,-6.322950363,1.31408751,0.4397250116,-1.558012486
30.47782037,7.146000385,-12.81900024,-6.322950363,1.31408751,0.4397250116,-1.558012486
30.49782037,7.146000385,-12.81900024,-6.322950363,1.31408751,0.4397250116,-1.558012486
30.51782037,7.146000385,-12.81900024,-6.322950363,1.31408751,0.4397250116,-1.558012486
30.53782037,7.146000385,-12.81900024,-6.322950363,1.31408751,0.4397250116,-1.558012486
30.55782037,7.146000385,-12.81900024,-6.322950363,1.31408751,0.4397250116,-1.558012486
30.57782037,7.146000385,-12.81900024,-6.322950363,1.31408751,0.4397250116,-1.558012486
30.59782037,7.146000385,-12.81900024,-6.322950363,1.31408751,0.4397250116,-1.558012486
30.61782037,0.8650500178,-9.507000923,-2.034000158,-0.4690124989,1.093262553,-0.08249999583
30.63782037,0.8650500178,-9.507000923,-2.034000158,-0.4690124989,1.093262553,-0.08249999583
30.65782037,0.8650500178,-9.507000923,-2.034000158,-0.4690124989,1.093262553,-0.08249999583
30.67782037,0.7500000596,-10.08105087,0.9720000625,-2.115162373,1.831499934,1.182637453
30.69782037,0.7500000596,-10.08105087,0.9720000625,-2.115162373,1.831499934,1.182637453
30.71782037,0.4620000124,-9.679050446,2.868000031,-0.5758500099,2.889012575,1.366062522
30.73782037,0.4620000124,-9.679050446,2.868000031,-0.5758500099,2.889012575,1.366062522
30.75782037,0.4620000124,-9.679050446,2.868000031,-0.5758500099,2.889012575,1.366062522
30.77782037,0.4620000124,-9.679050446,2.868000031,-0.5758500099,2.889012575,1.366062522
30.79782037,0.4620000124,-9.679050446,2.868000031,-0.5758500099,2.889012575,1.366062522
30.81782037,0.9799500704,-10.4640007,3.117000103,-0.0006874999963,2.465374947,0.8824750185
30.83782037,0.9799500704,-10.4640007,3.117000103,-0.0006874999963,2.465374947,0.8824750185
30.85782037,0.9799500704,-10.4640007,3.117000103,-0.0006874999963,2.465374947,0.8824750185
30.87782037,0.9799500704,-10.4640007,3.117000103,-0.0006874999963,2.465374947,0.8824750185
30.89782037,0.9799500704,-10.4640007,3.117000103,-0.0006874999963,2.465374947,0.8824750185
30.91782037,0.538950026,-9.928050041,2.752950191,1.098350048,1.843462467,0.3606624901
30.93782037,0.538950026,-9.928050041,2.752950191,1.098350048,1.843462467,0.3606624901
30.95782037,0.538950026,-9.928050041,2.752950191,1.098350048,1.843462467,0.3606624901
30.97782037,0.538950026,-9.928050041,2.752950191,1.098350048,1.843462467,0.3606624901
30.99782037,0.538950026,-9.928050041,2.752950191,1.098350048,1.843462467,0.3606624901
31.01782037,3.316050053,-8.779050827,4.591050148,0.5132874846,1.574512482,-0.292737484
31.03782037,3.316050053,-8.779050827,4.591050148,0.5132874846,1.574512482,-0.292737484
31.05782037,5.173050404,-8.970000267,3.978000164,0.3427875042,1.356437445,-0.7845749855
31.07782037,5.173050404,-8.970000267,3.978000164,0.3427875042,1.356437445,-0.7845749855
31.09782037,5.173050404,-8.970000267,3.978000164,0.3427875042,1.356437445,-0.7845749855
31.11782037,5.173050404,-8.970000267,3.978000164,0.3427875042,1.356437445,-0.7845749855
31.13782037,5.173050404,-8.970000267,3.978000164,0.3427875042,1.356437445,-0.7845749855
31.15782037,4.101000309,-9.105000496,-2.397000074,-0.1226499975,0.3342624903,-1.869449973
31.17782037,4.101000309,-9.105000496,-2.397000074,-0.1226499975,0.3342624903,-1.869449973
31.19782037,4.101000309,-9.105000496,-2.397000074,-0.1226499975,0.3342624903,-1.869449973
31.21782037,4.101000309,-9.105000496,-2.397000074,-0.1226499975,0.3342624903,-1.869449973
31.23782037,4.101000309,-9.105000496,-2.397000074,-0.1226499975,0.3342624903,-1.869449973
31.25782037,5.211000443,-9.142950058,3.787050247,-1.151562452,1.24781251,-1.417762518
31.27782037,5.211000443,-9.142950058,3.787050247,-1.151562452,1.24781251,-1.417762518
31.29782037,3.75600028,-8.568000793,-0.3480000198,-1.480737448,1.750650048,-1.301987529
31.31782037,3.75600028,-8.568000793,-0.3480000198,-1.480737448,1.750650048,-1.301987529
31.33782037,3.75600028,-8.568000793,-0.3480000198,-1.480737448,1.750650048,-1.301987529
31.35782037,3.75600028,-8.568000793,-0.3480000198,-1.480737448,1.750650048,-1.301987529
31.37782037,3.75600028,-8.568000793,-0.3480000198,-1.480737448,1.750650048,-1.301987529
31.39782037,1.669050097,-9.736050606,2.925000191,-1.69166255,2.896024942,0.09735000134
31.41782037,1.669050097,-9.736050606,2.925000191,-1.69166255,2.896024942,0.09735000134
31.43782037,2.262000084,-9.601950645,-0.3870000243,-0.2719750106,1.777874947,0.2773374915
31.45782037,2.262000084,-9.601950645,-0.3870000243,-0.2719750106,1.777874947,0.2773374915
31.47782037,2.262000084,-9.601950645,-0.3870000243,-0.2719750106,1.777874947,0.2773374915
31.49782037,3.507000208,-10.06200027,-2.359050035,-1.999387503,2.827275038,0.1238875017
31.51782037,3.507000208,-10.06200027,-2.359050035,-1.999387503,2.827275038,0.1238875017
31.53782037,2.416050196,-11.24895096,-0.4830000103,-2.018362522,2.69994998,0.3929750025
31.55782037,2.416050196,-11.24895096,-0.4830000103,-2.018362522,2.69994998,0.3929750025
31.57782037,2.416050196,-11.24895096,-0.4830000103,-2.018362522,2.69994998,0.3929750025
31.59782037,2.416050196,-11.24895096,-0.4830000103,-2.018362522,2.69994998,0.3929750025
31.61782037,2.416050196,-11.24895096,-0.4830000103,-2.018362522,2.69994998,0.3929750025
31.63782037,2.875050068,-9.622050285,0.7039500475,-1.397825003,2.192712545,0.4283125103
31.65782037,2.875050068,-9.622050285,0.7039500475,-1.397825003,2.192712545,0.4283125103
31.67782037,2.875050068,-9.622050285,0.7039500475,-1.397825003,2.192712545,0.4283125103
31.69782037,2.875050068,-9.622050285,0.7039500475,-1.397825003,2.192712545,0.4283125103
31.71782037,2.875050068,-9.622050285,0.7039500475,-1.397825003,2.192712545,0.4283125103
31.73782037,10.5730505,-9.181050301,0.1290000081,-0.8805499673,2.517487526,-0.9594749808
31.75782037,10.5730505,-9.181050301,0.1290000081,-0.8805499673,2.517487526,-0.9594749808
31.77782037,6.436950207,-9.813000679,-0.07995000482,-1.079237461,2.843499899,-1.571074963
31.79782037,6.436950207,-9.813000679,-0.07995000482,-1.079237461,2.843499899,-1.571074963
31.81782037,6.436950207,-9.813000679,-0.07995000482,-1.079237461,2.843499899,-1.571074963
31.83782037,4.483950138,-8.607000351,0.3589500189,-0.876150012,2.22145009,-1.384899974
31.85782037,4.483950138,-8.607000351,0.3589500189,-0.876150012,2.22145009,-1.384899974
31.87782037,4.714050293,-6.499950409,0.244050011,-0.5357000232,1.614112496,-1.269812465
31.89782037,4.714050293,-6.499950409,0.244050011,-0.5357000232,1.614112496,-1.269812465
31.91782037,4.714050293,-6.499950409,0.244050011,-0.5357000232,1.614112496,-1.269812465
31.93782037,4.714050293,-6.499950409,0.244050011,-0.5357000232,1.614112496,-1.269812465
31.95782037,4.714050293,-6.499950409,0.244050011,-0.5357000232,1.614112496,-1.269812465
31.97782037,5.422050476,-4.948950291,-0.6930000186,0.1919499934,0.1164624989,-0.7452499866
31.99782037,5.422050476,-4.948950291,-0.6930000186,0.1919499934,0.1164624989,-0.7452499866
32.01782037,5.422050476,-4.948950291,-0.6930000186,0.1919499934,0.1164624989,-0.7452499866
32.03782037,5.422050476,-4.948950291,-0.6930000186,0.1919499934,0.1164624989,-0.7452499866
