"Time (s)","Acceleration x (m/s^2)","Acceleration y (m/s^2)","Acceleration z (m/s^2)"
3.545012200E-2,-1.546950102E0,1.695000052E0,9.799950600E0
5.145012400E-2,-1.356000066E0,1.771050096E0,9.913950920E0
7.145012400E-2,0.000000000E0,0.000000000E0,0.000000000E0
9.145012400E-2,-1.144950032E0,1.540950060E0,9.723000526E0
1.114501240E-1,-1.297950029E0,1.522050023E0,9.511950493E0
1.314501240E-1,-1.297950029E0,1.522050023E0,9.511950493E0
1.514501240E-1,-1.183050036E0,1.273050070E0,9.283050537E0
1.714501240E-1,-1.183050036E0,1.273050070E0,9.283050537E0
1.914501240E-1,-6.469500065E-1,1.234950066E0,9.819000244E0
2.114501240E-1,2.205000073E-2,1.234950066E0,9.723000526E0
2.314501240E-1,2.205000073E-2,1.234950066E0,9.723000526E0
2.514501240E-1,1.055999994E0,9.859500527E-1,9.934050560E0
2.714501240E-1,1.055999994E0,9.859500527E-1,9.934050560E0
2.914501240E-1,1.055999994E0,9.859500527E-1,9.934050560E0
3.114501240E-1,1.055999994E0,9.859500527E-1,9.934050560E0
3.314501240E-1,1.055999994E0,9.859500527E-1,9.934050560E0
3.514501240E-1,1.879950047E0,4.309500158E-1,9.205950737E0
3.714501240E-1,1.879950047E0,4.309500158E-1,9.205950737E0
3.914501240E-1,2.377050161E0,1.440000087E-1,9.493050575E0
4.114501240E-1,2.377050161E0,1.440000087E-1,9.493050575E0
4.314501240E-1,2.683950186E0,-3.730500042E-1,9.685050011E0
4.514501240E-1,2.760000229E0,-5.070000291E-1,8.938050270E0
4.714501240E-1,2.760000229E0,-5.070000291E-1,8.938050270E0
4.914501240E-1,3.124050140E0,-5.449500084E-1,7.923000336E0
5.114501240E-1,3.124050140E0,-5.449500084E-1,7.923000336E0
5.314501240E-1,4.618050098E0,4.690500200E-1,7.234050274E0
5.514501240E-1,4.618050098E0,4.690500200E-1,7.234050274E0
5.714501240E-1,4.963050365E0,-7.560000420E-1,6.505950451E0
5.914501240E-1,4.599000454E0,-8.320500255E-1,6.295050144E0
6.114501240E-1,4.599000454E0,-8.320500255E-1,6.295050144E0
6.314501240E-1,3.985950232E0,-1.138050079E0,6.562950134E0
6.514501240E-1,3.985950232E0,-1.138050079E0,6.562950134E0
6.714501240E-1,3.985950232E0,-1.138050079E0,6.562950134E0
6.914501240E-1,5.307000160E0,-1.962000132E0,6.678000450E0
7.114501240E-1,5.307000160E0,-1.962000132E0,6.678000450E0
7.314501240E-1,6.552000523E0,-3.609000206E0,6.964950562E0
7.514501240E-1,6.552000523E0,-3.609000206E0,6.964950562E0
7.714501240E-1,6.552000523E0,-3.609000206E0,6.964950562E0
7.914501240E-1,6.552000523E0,-3.609000206E0,6.964950562E0
8.114501240E-1,6.552000523E0,-3.609000206E0,6.964950562E0
8.314501240E-1,8.006999969E0,-6.117000103E0,5.452950478E0
8.514501240E-1,8.006999969E0,-6.117000103E0,5.452950478E0
8.714501240E-1,1.107105064E1,-8.128050804E0,4.111950397E0
8.914501240E-1,1.107105064E1,-8.128050804E0,4.111950397E0
9.114501240E-1,1.170300102E1,-6.691950321E0,4.399050236E0
9.314501240E-1,1.256505013E1,-7.093950272E0,4.687050343E0
9.514501240E-1,1.256505013E1,-7.093950272E0,4.687050343E0
9.714501240E-1,1.298595047E1,-5.256000042E0,4.017000198E0
9.914501240E-1,1.298595047E1,-5.256000042E0,4.017000198E0
1.011450124E0,1.298595047E1,-5.256000042E0,4.017000198E0
1.031450124E0,1.298595047E1,-5.256000042E0,4.017000198E0
1.051450124E0,1.298595047E1,-5.256000042E0,4.017000198E0
1.071450124E0,8.332950592E0,-2.919000149E0,-3.412050247E0
1.091450124E0,8.332950592E0,-2.919000149E0,-3.412050247E0
1.111450124E0,9.175050735E0,-3.340950251E0,4.093050003E0
1.131450124E0,9.175050735E0,-3.340950251E0,4.093050003E0
1.151450124E0,9.175050735E0,-3.340950251E0,4.093050003E0
1.171450124E0,7.299000263E0,-2.460000038E0,1.585050106E0
1.191450124E0,7.299000263E0,-2.460000038E0,1.585050106E0
1.211450124E0,5.499000072E0,-3.340950251E0,2.713950157E0
1.231450124E0,5.499000072E0,-3.340950251E0,2.713950157E0
1.251450124E0,6.379950523E0,-3.915000200E0,7.420500517E-1
1.271450124E0,7.087950230E0,-4.317000389E0,1.068000078E0
1.291450124E0,7.087950230E0,-4.317000389E0,1.068000078E0
1.311450124E0,8.850000381E0,-5.160000324E0,2.274000168E0
1.331450124E0,8.850000381E0,-5.160000324E0,2.274000168E0
1.351450124E0,8.199000359E0,-5.524050236E0,4.246050358E0
1.371450124E0,8.199000359E0,-5.524050236E0,4.246050358E0
1.391450124E0,8.754000664E0,-4.891950130E0,1.699050069E0
1.411450124E0,8.754000664E0,-4.528050423E0,1.336050034E0
1.431450124E0,8.754000664E0,-4.528050423E0,1.336050034E0
1.451450124E0,9.501000404E0,-5.101950169E0,3.400500119E-1
1.471450124E0,9.501000404E0,-5.101950169E0,3.400500119E-1
1.491450124E0,9.501000404E0,-5.101950169E0,3.400500119E-1
1.511450124E0,1.047705078E1,-5.773050308E0,1.756950140E0
1.531450124E0,1.047705078E1,-5.773050308E0,1.756950140E0
1.551450124E0,1.158795071E1,-5.256000042E0,7.800000310E-1
1.571450124E0,1.158795071E1,-5.256000042E0,7.800000310E-1
1.591450124E0,1.158795071E1,-5.256000042E0,7.800000310E-1
1.611450124E0,1.158795071E1,-5.256000042E0,7.800000310E-1
1.631450124E0,1.158795071E1,-5.256000042E0,7.800000310E-1
1.651450124E0,1.158795071E1,-5.256000042E0,7.800000310E-1
1.671450124E0,1.158795071E1,-5.256000042E0,7.800000310E-1
1.691450124E0,1.158795071E1,-5.256000042E0,7.800000310E-1
1.711450124E0,1.158795071E1,-5.256000042E0,7.800000310E-1
1.731450124E0,1.158795071E1,-5.256000042E0,7.800000310E-1
1.751450124E0,1.158795071E1,-5.256000042E0,7.800000310E-1
1.771450124E0,1.158795071E1,-5.256000042E0,7.800000310E-1
1.791450124E0,1.214295101E1,-5.101950169E0,-3.289500177E-1
1.811450124E0,1.214295101E1,-5.101950169E0,-3.289500177E-1
1.831450124E0,1.132005024E1,-6.883050442E0,4.246050358E0
1.851450124E0,1.132005024E1,-6.883050442E0,4.246050358E0
1.871450124E0,1.132005024E1,-6.883050442E0,4.246050358E0
1.891450124E0,9.175050735E0,-9.411000252E0,-2.377950191E0
1.911450124E0,9.175050735E0,-9.411000252E0,-2.377950191E0
1.931450124E0,7.624050140E0,-6.403950214E0,1.395000052E-2
1.951450124E0,7.624050140E0,-6.403950214E0,1.395000052E-2
1.971450124E0,7.624050140E0,-6.403950214E0,1.395000052E-2
1.991450124E0,7.471050262E0,-6.442950249E0,1.182000041E0
2.011450124E0,7.471050262E0,-6.442950249E0,1.182000041E0
2.031450124E0,8.352000237E0,-6.097950459E0,8.569500446E-1
2.051450124E0,8.352000237E0,-6.097950459E0,8.569500446E-1
2.071450124E0,7.681950569E0,-4.509000301E0,1.029000044E0
2.091450124E0,7.681950569E0,-4.509000301E0,1.029000044E0
2.111450124E0,7.681950569E0,-4.509000301E0,1.029000044E0
2.131450124E0,8.065050125E0,-2.728050232E0,3.780000210E-1
2.151450124E0,8.065050125E0,-2.728050232E0,3.780000210E-1
2.171450124E0,7.011000156E0,-8.050950050E0,4.074000359E0
2.191450124E0,7.011000156E0,-8.050950050E0,4.074000359E0
2.211450124E0,7.050000191E0,-1.236000061E1,-5.590500236E-1
2.231450124E0,6.954000473E0,-1.316400051E1,-3.289500177E-1
2.251450124E0,6.954000473E0,-1.316400051E1,-3.289500177E-1
2.271450124E0,6.340950489E0,-7.132050514E0,-1.570500135E-1
2.291450124E0,6.340950489E0,-7.132050514E0,-1.570500135E-1
2.311450124E0,6.340950489E0,-7.132050514E0,-1.570500135E-1
2.331450124E0,6.340950489E0,-7.132050514E0,-1.570500135E-1
2.351450124E0,6.340950489E0,-7.132050514E0,-1.570500135E-1
2.371450124E0,6.436950207E0,-7.879050255E0,8.569500446E-1
2.391450124E0,6.436950207E0,-7.879050255E0,8.569500446E-1
2.411450124E0,6.648000240E0,-7.419000149E0,1.480500102E-1
2.431450124E0,6.648000240E0,-7.419000149E0,1.480500102E-1
2.451450124E0,6.648000240E0,-7.419000149E0,1.480500102E-1
2.471450124E0,5.632950306E0,-6.922050476E0,4.740000367E-1
2.491450124E0,5.632950306E0,-6.922050476E0,4.740000367E-1
2.511450124E0,6.034950256E0,-4.297950268E0,-1.950000077E-1
2.531450124E0,6.034950256E0,-4.297950268E0,-1.950000077E-1
2.551450124E0,4.216050148E0,-6.193950176E0,-6.930000186E-1
2.571450124E0,5.556000233E0,-6.979050159E0,8.190000653E-1
2.591450124E0,5.556000233E0,-6.979050159E0,8.190000653E-1
2.611450124E0,6.667050362E0,-1.046400070E1,2.059500068E-1
2.631450124E0,6.667050362E0,-1.046400070E1,2.059500068E-1
2.651450124E0,6.667050362E0,-1.046400070E1,2.059500068E-1
2.671450124E0,6.667050362E0,-1.046400070E1,2.059500068E-1
2.691450124E0,6.667050362E0,-1.046400070E1,2.059500068E-1
2.711450124E0,4.848000050E0,-8.434050560E0,8.190000653E-1
2.731450124E0,4.848000050E0,-8.434050560E0,8.190000653E-1
2.751450124E0,4.714050293E0,-8.683050156E0,4.740000367E-1
2.771450124E0,4.714050293E0,-8.683050156E0,4.740000367E-1
2.791450124E0,4.942950249E0,-8.836050034E0,7.039500475E-1
2.811450124E0,5.250000477E0,-9.009000778E0,9.529500604E-1
2.831450124E0,5.250000477E0,-9.009000778E0,9.529500604E-1
2.851450124E0,5.536950111E0,-7.956000328E0,1.480500102E-1
2.871450124E0,5.536950111E0,-7.956000328E0,1.480500102E-1
2.891450124E0,5.593950272E0,-7.611000538E0,7.039500475E-1
2.911450124E0,5.593950272E0,-7.611000538E0,7.039500475E-1
2.931450124E0,5.593950272E0,-7.611000538E0,7.039500475E-1
2.951450124E0,4.675050259E0,-8.701950073E0,1.105949998E0
2.971450124E0,4.675050259E0,-8.701950073E0,1.105949998E0
2.991450124E0,4.675050259E0,-8.701950073E0,1.105949998E0
3.011450124E0,4.675050259E0,-8.701950073E0,1.105949998E0
3.031450124E0,4.675050259E0,-8.701950073E0,1.105949998E0
3.051450124E0,5.422050476E0,-8.204999924E0,1.125000000E0
3.071450124E0,5.422050476E0,-8.204999924E0,1.125000000E0
3.091450124E0,3.297000170E0,-1.483050108E0,1.870500147E-1
3.111450124E0,3.297000170E0,-1.483050108E0,1.870500147E-1
3.131450124E0,5.383950233E0,-4.565999985E0,7.609500289E-1
3.151450124E0,5.383950233E0,-4.565999985E0,7.609500289E-1
3.171450124E0,5.383950233E0,-4.565999985E0,7.609500289E-1
3.191450124E0,4.771050453E0,-9.085050583E0,3.210000098E-1
3.211450124E0,4.771050453E0,-9.085050583E0,3.210000098E-1
3.231450124E0,2.262000084E0,-8.377050400E0,1.240050077E0
3.251450124E0,2.262000084E0,-8.377050400E0,1.240050077E0
3.271450124E0,2.262000084E0,-8.377050400E0,1.240050077E0
3.291450124E0,6.540000439E-1,-9.564000130E0,1.431000113E0
3.311450124E0,6.540000439E-1,-9.564000130E0,1.431000113E0
3.331450124E0,2.071050167E0,-1.197705078E1,-2.818950176E0
3.351450124E0,2.071050167E0,-1.197705078E1,-2.818950176E0
3.371450124E0,2.071050167E0,-1.197705078E1,-2.818950176E0
3.391450124E0,2.071050167E0,-1.197705078E1,-2.818950176E0
3.411450124E0,2.071050167E0,-1.197705078E1,-2.818950176E0
3.431450124E0,2.722050190E0,-1.186200047E1,-1.420950055E0
3.451450124E0,2.722050190E0,-1.186200047E1,-1.420950055E0
3.471450124E0,2.071050167E0,-1.050195026E1,-1.950000077E-1
3.491450124E0,2.071050167E0,-1.050195026E1,-1.950000077E-1
3.511450124E0,2.071050167E0,-1.050195026E1,-1.950000077E-1
3.531450124E0,9.900000691E-2,-1.023405075E1,-5.020500422E-1
3.551450124E0,9.900000691E-2,-1.023405075E1,-5.020500422E-1
3.571450124E0,-1.300500035E-1,-1.075095081E1,-1.785000086E0
3.591450124E0,-1.300500035E-1,-1.075095081E1,-1.785000086E0
3.611450124E0,-2.070000172E-1,-1.063605022E1,-9.040500522E-1
3.631450124E0,-7.304999977E-2,-1.011900043E1,-5.590500236E-1
3.651450124E0,-7.304999977E-2,-1.011900043E1,-5.590500236E-1
3.671450124E0,-5.710500479E-1,-9.601950645E0,-2.149049997E0
3.691450124E0,-5.710500479E-1,-9.601950645E0,-2.149049997E0
3.711450124E0,-8.770500422E-1,-9.295950890E0,-2.167950153E0
3.731450124E0,-8.770500422E-1,-9.295950890E0,-2.167950153E0
3.751450124E0,-8.770500422E-1,-9.295950890E0,-2.167950153E0
3.771450124E0,2.520000041E-1,-8.740950584E0,9.139500260E-1
3.791450124E0,2.520000041E-1,-8.740950584E0,9.139500260E-1
3.811450124E0,2.520000041E-1,-8.740950584E0,9.139500260E-1
3.831450124E0,2.520000041E-1,-8.740950584E0,9.139500260E-1
3.851450124E0,2.710500062E-1,-9.238950729E0,-1.689000130E0
3.871450124E0,-1.489500105E-1,-8.932050705E0,-2.071950197E0
3.891450124E0,-1.489500105E-1,-8.932050705E0,-2.071950197E0
3.911450124E0,-7.620000243E-1,-1.006200027E1,-1.651050091E0
3.931450124E0,-7.620000243E-1,-1.006200027E1,-1.651050091E0
3.951450124E0,-3.790500164E-1,-9.315000534E0,-4.249500334E-1
3.971450124E0,-3.790500164E-1,-9.315000534E0,-4.249500334E-1
3.991450124E0,-9.730500579E-1,-1.046400070E1,3.780000210E-1
4.011450124E0,-9.340500236E-1,-1.103895092E1,2.250000089E-1
4.031450124E0,-9.340500236E-1,-1.103895092E1,2.250000089E-1
4.051450124E0,6.160500050E-1,-1.009995079E1,1.099500060E-1
4.071450124E0,6.160500050E-1,-1.009995079E1,1.099500060E-1
4.091450124E0,6.160500050E-1,-1.009995079E1,1.099500060E-1
4.111450124E0,-3.600000143E-1,-1.011900043E1,-1.287000060E0
4.131450124E0,-3.600000143E-1,-1.011900043E1,-1.287000060E0
4.151450124E0,-2.070000172E-1,-9.085050583E0,-3.526950121E0
4.171450124E0,-2.070000172E-1,-9.085050583E0,-3.526950121E0
4.191450124E0,-2.070000172E-1,-9.085050583E0,-3.526950121E0
4.211450124E0,-2.070000172E-1,-9.085050583E0,-3.526950121E0
4.231450124E0,-2.070000172E-1,-9.085050583E0,-3.526950121E0
4.251450124E0,3.000000026E-3,-1.008105087E1,9.720000625E-1
4.271450124E0,3.000000026E-3,-1.008105087E1,9.720000625E-1
4.291450124E0,3.000000026E-3,-1.008105087E1,9.720000625E-1
4.311450124E0,3.000000026E-3,-1.008105087E1,9.720000625E-1
4.331450124E0,3.859500289E-1,-8.511000633E0,3.780000210E-1
4.351450124E0,3.280500174E-1,-8.989950180E0,7.200000435E-2
4.371450124E0,3.280500174E-1,-8.989950180E0,7.200000435E-2
4.391450124E0,1.369500011E-1,-9.775050163E0,-1.950000077E-1
4.411450124E0,1.369500011E-1,-9.775050163E0,-1.950000077E-1
4.431450124E0,1.369500011E-1,-9.775050163E0,-1.950000077E-1
4.431450124E0,2.205000073E-2,-9.775050163E0,-3.289500177E-1
4.471450124E0,2.205000073E-2,-9.775050163E0,-3.289500177E-1
4.491450124E0,8.449500203E-1,-9.889950752E0,1.290000081E-1
4.511450124E0,8.449500203E-1,-9.889950752E0,1.290000081E-1
4.531450124E0,1.093950033E0,-9.813000679E0,7.800000310E-1
4.551450124E0,1.093950033E0,-9.813000679E0,7.800000310E-1
4.571450124E0,1.093950033E0,-9.813000679E0,7.800000310E-1
4.591450124E0,1.285950065E0,-9.430050850E0,8.569500446E-1
4.611450124E0,1.285950065E0,-9.430050850E0,8.569500446E-1
4.631450124E0,1.669050097E0,-9.583050728E0,-1.189500093E-1
4.651450124E0,1.669050097E0,-9.583050728E0,-1.189500093E-1
4.671450124E0,2.262000084E0,-9.679050446E0,-4.200000316E-2
4.691450124E0,2.262000084E0,-9.717000008E0,9.105000645E-2
4.711450124E0,2.262000084E0,-9.717000008E0,9.105000645E-2
4.731450124E0,2.281949997E0,-9.640950203E0,4.360500276E-1
4.751450124E0,2.281949997E0,-9.640950203E0,4.360500276E-1
4.771450124E0,1.860000134E0,-9.793950081E0,6.460500360E-1
4.791450124E0,1.860000134E0,-9.793950081E0,6.460500360E-1
4.811450124E0,1.860000134E0,-9.793950081E0,6.460500360E-1
4.831450124E0,1.362000108E0,-9.679050446E0,4.930500090E-1
4.851450124E0,1.362000108E0,-9.679050446E0,4.930500090E-1
4.871450124E0,1.783950090E0,-9.544950485E0,5.295000225E-2
4.891450124E0,1.783950090E0,-9.544950485E0,5.295000225E-2
4.911450124E0,1.783950090E0,-9.544950485E0,5.295000225E-2
4.931450124E0,1.860000134E0,-9.564000130E0,4.549500346E-1
4.951450124E0,1.860000134E0,-9.564000130E0,4.549500346E-1
4.971450124E0,1.879950047E0,-9.507000923E0,5.700000525E-1
4.991450124E0,1.879950047E0,-9.507000923E0,5.700000525E-1
5.011450124E0,2.185950041E0,-9.583050728E0,4.360500276E-1
5.031450124E0,2.185950041E0,-9.583050728E0,4.360500276E-1
5.051450124E0,2.089950085E0,-9.640950203E0,1.099500060E-1
5.071450124E0,1.918050051E0,-9.640950203E0,1.099500060E-1
5.091450124E0,1.918050051E0,-9.640950203E0,1.099500060E-1
5.111450124E0,1.285950065E0,-9.736050606E0,4.360500276E-1
5.131450124E0,1.285950065E0,-9.736050606E0,4.360500276E-1
5.151450124E0,1.285950065E0,-9.736050606E0,4.360500276E-1
5.171450124E0,1.248000026E0,-9.640950203E0,5.700000525E-1
5.191450124E0,1.248000026E0,-9.640950203E0,5.700000525E-1
5.211450124E0,1.726050138E0,-9.660000801E0,4.549500346E-1
5.231450124E0,1.726050138E0,-9.660000801E0,4.549500346E-1
5.251450124E0,1.783950090E0,-9.679050446E0,3.589500189E-1
5.271450124E0,1.783950090E0,-9.679050446E0,3.589500189E-1
5.291450124E0,1.783950090E0,-9.679050446E0,3.589500189E-1
5.311450124E0,1.401000023E0,-9.583050728E0,2.250000089E-1
5.331450124E0,1.401000023E0,-9.583050728E0,2.250000089E-1
5.351450124E0,1.248000026E0,-9.507000923E0,1.395000052E-2
5.371450124E0,1.248000026E0,-9.507000923E0,1.395000052E-2
5.391450124E0,1.803000093E0,-9.507000923E0,2.440500110E-1
5.411450124E0,2.052000046E0,-9.622050285E0,3.780000210E-1
5.431450124E0,2.052000046E0,-9.622050285E0,3.780000210E-1
5.451450124E0,2.205000162E0,-9.850950241E0,7.039500475E-1
5.471450124E0,2.205000162E0,-9.850950241E0,7.039500475E-1
5.491450124E0,2.205000162E0,-9.850950241E0,7.039500475E-1
5.511450124E0,2.205000162E0,-9.850950241E0,7.039500475E-1
5.531450124E0,2.205000162E0,-9.850950241E0,7.039500475E-1
5.551450124E0,1.055999994E0,-9.601950645E0,5.509500504E-1
5.571450124E0,1.055999994E0,-9.601950645E0,5.509500504E-1
5.591450124E0,9.990000725E-1,-9.679050446E0,4.549500346E-1
5.611450124E0,9.990000725E-1,-9.679050446E0,4.549500346E-1
5.631450124E0,9.990000725E-1,-9.679050446E0,4.549500346E-1
5.651450124E0,2.014050007E0,-9.430050850E0,5.509500504E-1
5.671450124E0,2.014050007E0,-9.430050850E0,5.509500504E-1
5.691450124E0,2.032950163E0,-9.468000412E0,7.609500289E-1
5.711450124E0,2.032950163E0,-9.468000412E0,7.609500289E-1
5.731450124E0,2.148000002E0,-9.736050606E0,6.460500360E-1
5.751450124E0,2.089950085E0,-9.679050446E0,4.930500090E-1
5.771450124E0,2.089950085E0,-9.679050446E0,4.930500090E-1
5.791450124E0,1.630950093E0,-9.640950203E0,3.970500231E-1
5.811450124E0,1.630950093E0,-9.640950203E0,3.970500231E-1
5.831450124E0,1.438950062E0,-9.697950363E0,4.930500090E-1
5.851450124E0,1.438950062E0,-9.697950363E0,4.930500090E-1
5.871450124E0,1.438950062E0,-9.697950363E0,4.930500090E-1
5.891450124E0,1.497000098E0,-9.622050285E0,4.740000367E-1
5.911450124E0,1.497000098E0,-9.622050285E0,4.740000367E-1
5.931450124E0,1.840950131E0,-9.640950203E0,3.970500231E-1
5.951450124E0,1.840950131E0,-9.640950203E0,3.970500231E-1
5.971450124E0,1.840950131E0,-9.640950203E0,3.970500231E-1
5.991450124E0,1.993950129E0,-9.564000130E0,5.700000525E-1
6.011450124E0,1.993950129E0,-9.564000130E0,5.700000525E-1
6.031450124E0,1.993950129E0,-9.660000801E0,7.420500517E-1
6.051450124E0,1.993950129E0,-9.660000801E0,7.420500517E-1
6.071450124E0,1.956000090E0,-9.640950203E0,5.890500546E-1
6.091450124E0,1.956000090E0,-9.640950203E0,5.890500546E-1
6.111450124E0,1.899000049E0,-9.583050728E0,4.549500346E-1
6.131450124E0,1.936950088E0,-9.583050728E0,4.549500346E-1
6.151450124E0,1.936950088E0,-9.583050728E0,4.549500346E-1
6.171450124E0,1.993950129E0,-9.601950645E0,4.930500090E-1
6.191450124E0,1.993950129E0,-9.601950645E0,4.930500090E-1
6.211450124E0,1.993950129E0,-9.601950645E0,4.930500090E-1
6.231450124E0,2.071050167E0,-9.526050568E0,6.460500360E-1
6.251450124E0,2.071050167E0,-9.526050568E0,6.460500360E-1
6.271450124E0,2.128050089E0,-9.544950485E0,7.039500475E-1
6.291450124E0,2.128050089E0,-9.544950485E0,7.039500475E-1
6.311450124E0,2.128050089E0,-9.544950485E0,7.039500475E-1
6.331450124E0,2.128050089E0,-9.544950485E0,7.039500475E-1
6.351450124E0,2.128050089E0,-9.544950485E0,7.039500475E-1
6.371450124E0,1.918050051E0,-9.622050285E0,4.549500346E-1
6.391450124E0,1.918050051E0,-9.622050285E0,4.549500346E-1
6.411450124E0,1.899000049E0,-9.601950645E0,5.310000181E-1
6.431450124E0,1.899000049E0,-9.601950645E0,5.310000181E-1
6.451450124E0,2.071050167E0,-9.564000130E0,4.930500090E-1
6.471450124E0,2.148000002E0,-9.468000412E0,5.119500160E-1
6.491450124E0,2.148000002E0,-9.468000412E0,5.119500160E-1
6.511450124E0,2.262000084E0,-9.544950485E0,5.509500504E-1
6.531450124E0,2.262000084E0,-9.544950485E0,5.509500504E-1
6.551450124E0,2.242950201E0,-9.544950485E0,6.850500107E-1
6.571450124E0,2.242950201E0,-9.544950485E0,6.850500107E-1
6.591450124E0,2.242950201E0,-9.544950485E0,6.850500107E-1
6.611450124E0,2.205000162E0,-9.430050850E0,8.380500674E-1
6.631450124E0,2.205000162E0,-9.430050850E0,8.380500674E-1
6.651450124E0,2.032950163E0,-9.544950485E0,8.569500446E-1
6.671450124E0,2.032950163E0,-9.544950485E0,8.569500446E-1
6.691450124E0,2.032950163E0,-9.544950485E0,8.569500446E-1
6.711450124E0,1.650000095E0,-9.850950241E0,6.460500360E-1
6.731450124E0,1.650000095E0,-9.850950241E0,6.460500360E-1
6.751450124E0,1.840950131E0,-9.526050568E0,9.105000645E-2
6.771450124E0,1.840950131E0,-9.526050568E0,9.105000645E-2
6.791450124E0,2.071050167E0,-9.468000412E0,3.019500077E-1
6.811450124E0,2.071050167E0,-9.468000412E0,3.019500077E-1
6.831450124E0,2.071050167E0,-9.468000412E0,3.019500077E-1
6.851450124E0,2.224050045E0,-9.352950096E0,9.340500236E-1
6.871450124E0,2.224050045E0,-9.352950096E0,9.340500236E-1
6.891450124E0,2.358000040E0,-9.430050850E0,9.340500236E-1
6.911450124E0,2.358000040E0,-9.430050850E0,9.340500236E-1
6.931450124E0,2.454000235E0,-9.601950645E0,5.119500160E-1
6.951450124E0,2.281949997E0,-9.544950485E0,3.210000098E-1
6.971450124E0,2.281949997E0,-9.544950485E0,3.210000098E-1
6.991450124E0,2.071050167E0,-9.564000130E0,1.099500060E-1
7.011450124E0,2.071050167E0,-9.564000130E0,1.099500060E-1
7.031450124E0,2.071050167E0,-9.564000130E0,1.099500060E-1
7.051450124E0,2.109000206E0,-9.430050850E0,6.649500132E-1
7.071450124E0,2.109000206E0,-9.430050850E0,6.649500132E-1
7.091450124E0,2.185950041E0,-9.487950325E0,9.910500646E-1
7.111450124E0,2.185950041E0,-9.487950325E0,9.910500646E-1
7.131450124E0,2.205000162E0,-9.640950203E0,9.720000625E-1
7.151450124E0,2.205000162E0,-9.640950203E0,9.720000625E-1
7.171450124E0,2.205000162E0,-9.640950203E0,9.720000625E-1
7.191450124E0,2.014050007E0,-9.564000130E0,5.890500546E-1
7.211450124E0,2.014050007E0,-9.564000130E0,5.890500546E-1
7.231450124E0,1.822050095E0,-9.717000008E0,5.509500504E-1
7.251450124E0,1.822050095E0,-9.717000008E0,5.509500504E-1
7.271450124E0,1.822050095E0,-9.334050179E0,6.649500132E-1
7.291450124E0,1.956000090E0,-9.258000374E0,7.420500517E-1
7.311450124E0,1.956000090E0,-9.258000374E0,7.420500517E-1
7.331450124E0,1.956000090E0,-9.258000374E0,7.420500517E-1
7.351450124E0,1.956000090E0,-9.258000374E0,7.420500517E-1
7.371450124E0,1.458000064E0,-9.199950218E0,9.529500604E-1
7.391450124E0,1.458000064E0,-9.199950218E0,9.529500604E-1
7.411450124E0,1.458000064E0,-9.199950218E0,9.529500604E-1
7.431450124E0,2.109000206E0,-9.583050728E0,8.190000653E-1
7.451450124E0,2.109000206E0,-9.583050728E0,8.190000653E-1
7.471450124E0,1.860000134E0,-9.679050446E0,4.930500090E-1
7.491450124E0,1.860000134E0,-9.679050446E0,4.930500090E-1
7.511450124E0,1.860000134E0,-9.679050446E0,4.930500090E-1
7.531450124E0,1.956000090E0,-9.583050728E0,7.200000435E-2
7.551450124E0,1.956000090E0,-9.583050728E0,7.200000435E-2
7.571450124E0,2.320050001E0,-9.601950645E0,5.509500504E-1
7.591450124E0,2.320050001E0,-9.601950645E0,5.509500504E-1
7.611450124E0,2.434950113E0,-9.660000801E0,6.850500107E-1
7.631450124E0,2.434950113E0,-9.660000801E0,6.850500107E-1
7.651450124E0,2.434950113E0,-9.660000801E0,6.850500107E-1
7.651450124E0,2.434950113E0,-9.334050179E0,1.048050046E0
7.691450124E0,2.434950113E0,-9.334050179E0,1.048050046E0
7.711450124E0,1.899000049E0,-9.640950203E0,8.950500488E-1
7.731450124E0,1.899000049E0,-9.640950203E0,8.950500488E-1
7.751450124E0,1.899000049E0,-9.640950203E0,8.950500488E-1
7.771450124E0,1.669050097E0,-9.601950645E0,5.700000525E-1
7.791450124E0,1.669050097E0,-9.601950645E0,5.700000525E-1
7.811450124E0,1.975050092E0,-9.601950645E0,4.549500346E-1
7.831450124E0,1.975050092E0,-9.601950645E0,4.549500346E-1
7.851450124E0,1.975050092E0,-9.601950645E0,4.549500346E-1
7.871450124E0,1.975050092E0,-9.601950645E0,4.549500346E-1
7.891450124E0,1.975050092E0,-9.601950645E0,4.549500346E-1
7.911450124E0,2.128050089E0,-9.564000130E0,6.460500360E-1
7.931450124E0,2.128050089E0,-9.564000130E0,6.460500360E-1
7.951450124E0,2.185950041E0,-9.487950325E0,8.760000467E-1
7.971450124E0,2.185950041E0,-9.487950325E0,8.760000467E-1
7.991450124E0,2.281949997E0,-9.373050690E0,9.529500604E-1
8.011450124E0,2.205000162E0,-9.352950096E0,9.340500236E-1
8.031450124E0,2.205000162E0,-9.352950096E0,9.340500236E-1
8.051450124E0,1.899000049E0,-9.850950241E0,4.549500346E-1
8.071450124E0,1.899000049E0,-9.850950241E0,4.549500346E-1
8.091450124E0,1.899000049E0,-9.850950241E0,4.549500346E-1
8.111450124E0,1.554000020E0,-9.640950203E0,3.780000210E-1
8.131450124E0,1.554000020E0,-9.640950203E0,3.780000210E-1
8.151450124E0,1.860000134E0,-9.544950485E0,7.800000310E-1
8.171450124E0,1.860000134E0,-9.544950485E0,7.800000310E-1
8.191450124E0,1.956000090E0,-9.468000412E0,1.009950042E0
8.211450124E0,1.956000090E0,-9.468000412E0,1.009950042E0
8.231450124E0,1.956000090E0,-9.468000412E0,1.009950042E0
8.251450124E0,2.052000046E0,-9.601950645E0,7.230000496E-1
8.271450124E0,2.052000046E0,-9.601950645E0,7.230000496E-1
8.291450124E0,2.052000046E0,-9.601950645E0,7.230000496E-1
8.311450124E0,2.052000046E0,-9.601950645E0,7.230000496E-1
8.331450124E0,2.205000162E0,-9.526050568E0,5.119500160E-1
8.351450124E0,2.185950041E0,-9.544950485E0,5.890500546E-1
8.371450124E0,2.185950041E0,-9.544950485E0,5.890500546E-1
8.391450124E0,2.205000162E0,-9.544950485E0,7.420500517E-1
8.411450124E0,2.205000162E0,-9.544950485E0,7.420500517E-1
8.431450124E0,2.205000162E0,-9.544950485E0,7.420500517E-1
8.451450124E0,2.205000162E0,-9.544950485E0,7.420500517E-1
8.471450124E0,2.205000162E0,-9.544950485E0,7.420500517E-1
8.491450124E0,2.281949997E0,-9.564000130E0,4.930500090E-1
8.511450124E0,2.281949997E0,-9.564000130E0,4.930500090E-1
8.531450124E0,2.205000162E0,-9.583050728E0,5.310000181E-1
8.551450124E0,2.205000162E0,-9.583050728E0,5.310000181E-1
8.571450124E0,2.205000162E0,-9.583050728E0,5.310000181E-1
8.591450124E0,2.071050167E0,-9.583050728E0,6.649500132E-1
8.611450124E0,2.071050167E0,-9.583050728E0,6.649500132E-1
8.631450124E0,2.052000046E0,-9.601950645E0,6.850500107E-1
8.651450124E0,2.052000046E0,-9.601950645E0,6.850500107E-1
8.671450124E0,2.032950163E0,-9.507000923E0,6.649500132E-1
8.691450124E0,2.032950163E0,-9.507000923E0,6.649500132E-1
8.711450124E0,2.032950163E0,-9.507000923E0,6.649500132E-1
8.731450124E0,2.071050167E0,-9.564000130E0,5.890500546E-1
8.751450124E0,2.071050167E0,-9.564000130E0,5.890500546E-1
8.771450124E0,2.109000206E0,-9.544950485E0,5.700000525E-1
8.791450124E0,2.109000206E0,-9.544950485E0,5.700000525E-1
8.811450124E0,2.109000206E0,-9.544950485E0,5.700000525E-1
8.831450124E0,2.167050123E0,-9.487950325E0,5.700000525E-1
8.851450124E0,2.167050123E0,-9.487950325E0,5.700000525E-1
8.871450124E0,2.224050045E0,-9.601950645E0,6.079500318E-1
8.891450124E0,2.224050045E0,-9.601950645E0,6.079500318E-1
8.911450124E0,2.224050045E0,-9.601950645E0,6.079500318E-1
8.931450124E0,2.224050045E0,-9.601950645E0,6.079500318E-1
8.951450124E0,2.224050045E0,-9.601950645E0,6.079500318E-1
8.971450124E0,2.032950163E0,-9.564000130E0,5.119500160E-1
8.991450124E0,2.032950163E0,-9.564000130E0,5.119500160E-1
9.011450124E0,1.956000090E0,-9.487950325E0,6.079500318E-1
9.031450124E0,1.956000090E0,-9.487950325E0,6.079500318E-1
9.051450124E0,2.032950163E0,-9.526050568E0,6.079500318E-1
9.071450124E0,2.052000046E0,-9.564000130E0,5.700000525E-1
9.091450124E0,2.052000046E0,-9.564000130E0,5.700000525E-1
9.111450124E0,2.128050089E0,-9.564000130E0,4.549500346E-1
9.131450124E0,2.128050089E0,-9.564000130E0,4.549500346E-1
9.151450124E0,2.128050089E0,-9.564000130E0,4.549500346E-1
9.171450124E0,2.205000162E0,-9.601950645E0,4.549500346E-1
9.191450124E0,2.205000162E0,-9.601950645E0,4.549500346E-1
9.211450124E0,2.242950201E0,-9.583050728E0,3.970500231E-1
9.231450124E0,2.242950201E0,-9.583050728E0,3.970500231E-1
9.251450124E0,2.205000162E0,-9.564000130E0,4.549500346E-1
9.271450124E0,2.205000162E0,-9.564000130E0,4.549500346E-1
9.291450124E0,2.205000162E0,-9.564000130E0,4.549500346E-1
9.311450124E0,2.205000162E0,-9.564000130E0,4.549500346E-1
9.331450124E0,2.205000162E0,-9.564000130E0,4.549500346E-1
9.351450124E0,2.071050167E0,-9.564000130E0,5.890500546E-1
9.371450124E0,2.071050167E0,-9.564000130E0,5.890500546E-1
9.391450124E0,2.071050167E0,-9.564000130E0,5.890500546E-1
9.411450124E0,2.014050007E0,-9.487950325E0,4.930500090E-1
9.431450124E0,2.014050007E0,-9.487950325E0,4.930500090E-1
9.451450124E0,2.128050089E0,-9.583050728E0,6.079500318E-1
9.471450124E0,2.128050089E0,-9.583050728E0,6.079500318E-1
9.491450124E0,2.167050123E0,-9.487950325E0,6.460500360E-1
9.491450124E0,2.167050123E0,-9.487950325E0,6.460500360E-1
9.531450124E0,2.167050123E0,-9.487950325E0,6.460500360E-1
9.551450124E0,2.128050089E0,-9.544950485E0,5.700000525E-1
9.571450124E0,2.128050089E0,-9.544950485E0,5.700000525E-1
9.591450124E0,2.089950085E0,-9.544950485E0,6.079500318E-1
9.611450124E0,2.089950085E0,-9.544950485E0,6.079500318E-1
9.631450124E0,2.089950085E0,-9.544950485E0,6.079500318E-1
9.651450124E0,2.167050123E0,-9.564000130E0,6.270000339E-1
9.671450124E0,2.167050123E0,-9.564000130E0,6.270000339E-1
9.691450124E0,2.148000002E0,-9.622050285E0,6.079500318E-1
9.711450124E0,2.148000002E0,-9.622050285E0,6.079500318E-1
9.731450124E0,2.032950163E0,-9.601950645E0,6.649500132E-1
9.751450124E0,2.032950163E0,-9.601950645E0,6.649500132E-1
9.771450124E0,2.032950163E0,-9.601950645E0,6.649500132E-1
9.791450124E0,2.014050007E0,-9.564000130E0,6.649500132E-1
9.811450124E0,2.014050007E0,-9.564000130E0,6.649500132E-1
9.831450124E0,2.052000046E0,-9.564000130E0,5.310000181E-1
9.851450124E0,2.052000046E0,-9.564000130E0,5.310000181E-1
9.871450124E0,2.052000046E0,-9.564000130E0,5.310000181E-1
9.891450124E0,2.148000002E0,-9.583050728E0,5.310000181E-1
9.911450124E0,2.148000002E0,-9.583050728E0,5.310000181E-1
9.931450124E0,2.052000046E0,-9.583050728E0,5.700000525E-1
9.951450124E0,2.052000046E0,-9.583050728E0,5.700000525E-1
9.971450124E0,2.052000046E0,-9.583050728E0,5.700000525E-1
9.991450124E0,2.052000046E0,-9.583050728E0,5.700000525E-1
1.001145012E1,2.052000046E0,-9.583050728E0,5.700000525E-1
1.003145012E1,2.071050167E0,-9.544950485E0,4.930500090E-1
1.005145012E1,2.071050167E0,-9.544950485E0,4.930500090E-1
1.007145012E1,2.014050007E0,-9.583050728E0,4.930500090E-1
1.009145012E1,2.014050007E0,-9.583050728E0,4.930500090E-1
1.011145012E1,1.956000090E0,-9.564000130E0,4.930500090E-1
1.013145012E1,1.975050092E0,-9.583050728E0,4.549500346E-1
1.015145012E1,1.975050092E0,-9.583050728E0,4.549500346E-1
1.017145012E1,1.956000090E0,-9.564000130E0,3.019500077E-1
1.019145012E1,1.956000090E0,-9.564000130E0,3.019500077E-1
1.021145012E1,1.956000090E0,-9.564000130E0,3.019500077E-1
1.023145012E1,1.956000090E0,-9.564000130E0,3.019500077E-1
1.025145012E1,1.956000090E0,-9.564000130E0,3.019500077E-1
1.027145012E1,2.128050089E0,-9.583050728E0,3.780000210E-1
1.029145012E1,2.128050089E0,-9.583050728E0,3.780000210E-1
1.031145012E1,2.128050089E0,-9.583050728E0,3.780000210E-1
1.033145012E1,2.128050089E0,-9.583050728E0,3.780000210E-1
1.035145012E1,2.128050089E0,-9.583050728E0,3.780000210E-1
1.037145012E1,2.109000206E0,-9.526050568E0,3.400500119E-1
1.039145012E1,2.109000206E0,-9.526050568E0,3.400500119E-1
1.041145012E1,2.014050007E0,-9.468000412E0,5.310000181E-1
1.043145012E1,2.014050007E0,-9.468000412E0,5.310000181E-1
1.045145012E1,2.014050007E0,-9.468000412E0,5.310000181E-1
1.047145012E1,2.185950041E0,-9.507000923E0,5.310000181E-1
1.049145012E1,2.185950041E0,-9.507000923E0,5.310000181E-1
1.051145012E1,2.377050161E0,-9.601950645E0,2.820000052E-1
1.053145012E1,2.377050161E0,-9.601950645E0,2.820000052E-1
1.055145012E1,2.377050161E0,-9.583050728E0,1.480500102E-1
1.057145012E1,2.377050161E0,-9.583050728E0,1.480500102E-1
1.059145012E1,2.377050161E0,-9.583050728E0,1.480500102E-1
1.061145012E1,2.185950041E0,-9.544950485E0,4.549500346E-1
1.063145012E1,2.185950041E0,-9.544950485E0,4.549500346E-1
1.065145012E1,2.167050123E0,-9.564000130E0,4.549500346E-1
1.067145012E1,2.167050123E0,-9.564000130E0,4.549500346E-1
1.069145012E1,2.167050123E0,-9.564000130E0,4.549500346E-1
1.071145012E1,2.109000206E0,-9.544950485E0,3.780000210E-1
1.073145012E1,2.109000206E0,-9.544950485E0,3.780000210E-1
1.075145012E1,2.205000162E0,-9.583050728E0,3.589500189E-1
1.077145012E1,2.205000162E0,-9.583050728E0,3.589500189E-1
1.079145012E1,2.185950041E0,-9.544950485E0,3.780000210E-1
1.081145012E1,2.185950041E0,-9.544950485E0,3.780000210E-1
1.083145012E1,2.185950041E0,-9.544950485E0,3.780000210E-1
1.085145012E1,2.167050123E0,-9.468000412E0,4.930500090E-1
1.087145012E1,2.167050123E0,-9.468000412E0,4.930500090E-1
1.089145012E1,2.377050161E0,-9.468000412E0,3.970500231E-1
1.091145012E1,2.377050161E0,-9.468000412E0,3.970500231E-1
1.093145012E1,2.377050161E0,-9.468000412E0,3.970500231E-1
1.095145012E1,2.262000084E0,-9.564000130E0,3.210000098E-1
1.097145012E1,2.262000084E0,-9.564000130E0,3.210000098E-1
1.099145012E1,2.167050123E0,-9.564000130E0,3.400500119E-1
1.101145012E1,2.167050123E0,-9.564000130E0,3.400500119E-1
1.103145012E1,2.224050045E0,-9.544950485E0,3.970500231E-1
1.105145012E1,2.224050045E0,-9.544950485E0,3.970500231E-1
1.107145012E1,2.224050045E0,-9.544950485E0,3.970500231E-1
1.109145012E1,2.242950201E0,-9.507000923E0,4.549500346E-1
1.111145012E1,2.242950201E0,-9.507000923E0,4.549500346E-1
1.113145012E1,2.301000118E0,-9.526050568E0,5.119500160E-1
1.115145012E1,2.301000118E0,-9.526050568E0,5.119500160E-1
1.117145012E1,2.262000084E0,-9.507000923E0,5.509500504E-1
1.119145012E1,2.224050045E0,-9.507000923E0,5.509500504E-1
1.121145012E1,2.224050045E0,-9.507000923E0,5.509500504E-1
1.123145012E1,2.128050089E0,-9.564000130E0,4.930500090E-1
1.125145012E1,2.128050089E0,-9.564000130E0,4.930500090E-1
1.127145012E1,2.128050089E0,-9.564000130E0,4.930500090E-1
1.129145012E1,2.128050089E0,-9.564000130E0,4.930500090E-1
1.131145012E1,2.128050089E0,-9.564000130E0,4.930500090E-1
1.133145012E1,2.224050045E0,-9.544950485E0,4.930500090E-1
1.135145012E1,2.224050045E0,-9.544950485E0,4.930500090E-1
1.137145012E1,2.242950201E0,-9.526050568E0,5.509500504E-1
1.139145012E1,2.242950201E0,-9.526050568E0,5.509500504E-1
1.141145012E1,2.242950201E0,-9.526050568E0,5.509500504E-1
1.143145012E1,2.262000084E0,-9.526050568E0,5.700000525E-1
1.145145012E1,2.262000084E0,-9.526050568E0,5.700000525E-1
1.147145012E1,2.281949997E0,-9.564000130E0,4.360500276E-1
1.149145012E1,2.281949997E0,-9.564000130E0,4.360500276E-1
1.151145012E1,2.224050045E0,-9.526050568E0,4.159500301E-1
1.153145012E1,2.205000162E0,-9.544950485E0,4.549500346E-1
1.155145012E1,2.205000162E0,-9.544950485E0,4.549500346E-1
1.157145012E1,2.205000162E0,-9.507000923E0,5.700000525E-1
1.159145012E1,2.205000162E0,-9.507000923E0,5.700000525E-1
1.161145012E1,2.224050045E0,-9.526050568E0,5.700000525E-1
1.163145012E1,2.224050045E0,-9.526050568E0,5.700000525E-1
1.165145012E1,2.224050045E0,-9.526050568E0,5.700000525E-1
1.167145012E1,2.148000002E0,-9.564000130E0,5.310000181E-1
1.169145012E1,2.148000002E0,-9.564000130E0,5.310000181E-1
1.171145012E1,2.167050123E0,-9.564000130E0,4.360500276E-1
1.173145012E1,2.167050123E0,-9.564000130E0,4.360500276E-1
1.175145012E1,2.167050123E0,-9.564000130E0,4.360500276E-1
1.177145012E1,2.242950201E0,-9.544950485E0,4.740000367E-1
1.179145012E1,2.242950201E0,-9.544950485E0,4.740000367E-1
1.181145012E1,2.224050045E0,-9.544950485E0,5.509500504E-1
1.183145012E1,2.224050045E0,-9.544950485E0,5.509500504E-1
1.185145012E1,2.224050045E0,-9.526050568E0,5.509500504E-1
1.187145012E1,2.224050045E0,-9.526050568E0,5.509500504E-1
1.189145012E1,2.224050045E0,-9.526050568E0,5.509500504E-1
1.191145012E1,2.167050123E0,-9.526050568E0,4.930500090E-1
1.193145012E1,2.167050123E0,-9.526050568E0,4.930500090E-1
1.195145012E1,2.205000162E0,-9.564000130E0,4.930500090E-1
1.197145012E1,2.205000162E0,-9.564000130E0,4.930500090E-1
1.199145012E1,2.224050045E0,-9.526050568E0,5.509500504E-1
1.201145012E1,2.205000162E0,-9.487950325E0,5.509500504E-1
1.203145012E1,2.205000162E0,-9.487950325E0,5.509500504E-1
1.205145012E1,2.262000084E0,-9.526050568E0,5.119500160E-1
1.207145012E1,2.262000084E0,-9.526050568E0,5.119500160E-1
1.209145012E1,2.262000084E0,-9.544950485E0,5.119500160E-1
1.211145012E1,2.262000084E0,-9.544950485E0,5.119500160E-1
1.213145012E1,2.262000084E0,-9.544950485E0,5.119500160E-1
1.215145012E1,2.205000162E0,-9.507000923E0,5.310000181E-1
1.217145012E1,2.205000162E0,-9.507000923E0,5.310000181E-1
1.219145012E1,2.205000162E0,-9.526050568E0,5.119500160E-1
1.221145012E1,2.205000162E0,-9.526050568E0,5.119500160E-1
1.223145012E1,2.185950041E0,-9.507000923E0,5.509500504E-1
1.225145012E1,2.205000162E0,-9.526050568E0,5.509500504E-1
1.223145012E1,2.185950041E0,-9.507000923E0,5.509500504E-1
1.229145012E1,2.281949997E0,-9.526050568E0,5.310000181E-1
1.231145012E1,2.281949997E0,-9.526050568E0,5.310000181E-1
1.233145012E1,2.224050045E0,-9.544950485E0,5.119500160E-1
1.235145012E1,2.224050045E0,-9.544950485E0,5.119500160E-1
1.237145012E1,2.224050045E0,-9.544950485E0,5.119500160E-1
1.239145012E1,2.167050123E0,-9.526050568E0,5.119500160E-1
1.241145012E1,2.167050123E0,-9.526050568E0,5.119500160E-1
1.243145012E1,2.148000002E0,-9.544950485E0,5.700000525E-1
1.245145012E1,2.148000002E0,-9.544950485E0,5.700000525E-1
1.247145012E1,2.148000002E0,-9.544950485E0,5.700000525E-1
1.249145012E1,2.167050123E0,-9.544950485E0,5.310000181E-1
1.251145012E1,2.167050123E0,-9.544950485E0,5.310000181E-1
1.253145012E1,2.185950041E0,-9.564000130E0,5.509500504E-1
1.255145012E1,2.185950041E0,-9.564000130E0,5.509500504E-1
1.257145012E1,2.128050089E0,-9.544950485E0,5.310000181E-1
1.259145012E1,2.128050089E0,-9.544950485E0,5.310000181E-1
1.261145012E1,2.128050089E0,-9.544950485E0,5.310000181E-1
1.263145012E1,2.128050089E0,-9.544950485E0,5.509500504E-1
1.265145012E1,2.128050089E0,-9.544950485E0,5.509500504E-1
1.267145012E1,2.224050045E0,-9.544950485E0,5.890500546E-1
1.269145012E1,2.224050045E0,-9.544950485E0,5.890500546E-1
1.271145012E1,2.224050045E0,-9.544950485E0,5.890500546E-1
1.273145012E1,2.205000162E0,-9.544950485E0,4.930500090E-1
1.275145012E1,2.205000162E0,-9.544950485E0,4.930500090E-1
1.277145012E1,2.205000162E0,-9.544950485E0,4.930500090E-1
1.279145012E1,2.205000162E0,-9.544950485E0,4.930500090E-1
1.281145012E1,2.205000162E0,-9.544950485E0,4.930500090E-1
1.283145012E1,2.205000162E0,-9.487950325E0,5.890500546E-1
1.285145012E1,2.205000162E0,-9.487950325E0,5.890500546E-1
1.287145012E1,2.242950201E0,-9.507000923E0,5.509500504E-1
1.289145012E1,2.242950201E0,-9.507000923E0,5.509500504E-1
1.291145012E1,2.262000084E0,-9.526050568E0,5.310000181E-1
1.293145012E1,2.262000084E0,-9.526050568E0,5.310000181E-1
1.295145012E1,2.262000084E0,-9.526050568E0,5.310000181E-1
1.297145012E1,2.242950201E0,-9.526050568E0,5.509500504E-1
1.299145012E1,2.242950201E0,-9.526050568E0,5.509500504E-1
1.301145012E1,2.281949997E0,-9.507000923E0,5.310000181E-1
1.303145012E1,2.281949997E0,-9.507000923E0,5.310000181E-1
1.305145012E1,2.224050045E0,-9.526050568E0,5.509500504E-1
1.307145012E1,2.224050045E0,-9.544950485E0,5.509500504E-1
1.309145012E1,2.224050045E0,-9.544950485E0,5.509500504E-1
1.311145012E1,2.301000118E0,-9.526050568E0,4.930500090E-1
1.313145012E1,2.301000118E0,-9.526050568E0,4.930500090E-1
1.315145012E1,2.301000118E0,-9.526050568E0,4.930500090E-1
1.317145012E1,2.301000118E0,-9.526050568E0,4.930500090E-1
1.319145012E1,2.301000118E0,-9.526050568E0,4.930500090E-1
1.321145012E1,2.205000162E0,-9.507000923E0,6.460500360E-1
1.323145012E1,2.205000162E0,-9.507000923E0,6.460500360E-1
1.325145012E1,2.185950041E0,-9.564000130E0,6.649500132E-1
1.327145012E1,2.185950041E0,-9.564000130E0,6.649500132E-1
1.329145012E1,2.185950041E0,-9.564000130E0,6.649500132E-1
1.331145012E1,2.167050123E0,-9.564000130E0,5.310000181E-1
1.333145012E1,2.167050123E0,-9.564000130E0,5.310000181E-1
1.335145012E1,2.167050123E0,-9.564000130E0,5.890500546E-1
1.337145012E1,2.167050123E0,-9.564000130E0,5.890500546E-1
1.339145012E1,2.148000002E0,-9.544950485E0,6.850500107E-1
1.341145012E1,2.148000002E0,-9.544950485E0,6.850500107E-1
1.343145012E1,2.148000002E0,-9.544950485E0,6.850500107E-1
1.345145012E1,2.128050089E0,-9.526050568E0,6.850500107E-1
1.347145012E1,2.128050089E0,-9.526050568E0,6.850500107E-1
1.349145012E1,2.128050089E0,-9.526050568E0,6.850500107E-1
1.351145012E1,2.128050089E0,-9.526050568E0,6.850500107E-1
1.353145012E1,2.128050089E0,-9.526050568E0,6.850500107E-1
1.355145012E1,2.089950085E0,-9.544950485E0,6.079500318E-1
1.357145012E1,2.089950085E0,-9.544950485E0,6.079500318E-1
1.359145012E1,2.089950085E0,-9.564000130E0,6.649500132E-1
1.361145012E1,2.089950085E0,-9.564000130E0,6.649500132E-1
1.363145012E1,2.148000002E0,-9.564000130E0,6.270000339E-1
1.365145012E1,2.167050123E0,-9.583050728E0,5.890500546E-1
1.367145012E1,2.167050123E0,-9.583050728E0,5.890500546E-1
1.369145012E1,2.148000002E0,-9.583050728E0,5.700000525E-1
1.371145012E1,2.148000002E0,-9.583050728E0,5.700000525E-1
1.373145012E1,2.128050089E0,-9.564000130E0,6.079500318E-1
1.375145012E1,2.128050089E0,-9.564000130E0,6.079500318E-1
1.377145012E1,2.128050089E0,-9.564000130E0,6.079500318E-1
1.379145012E1,2.052000046E0,-9.564000130E0,6.270000339E-1
1.381145012E1,2.052000046E0,-9.564000130E0,6.270000339E-1
1.383145012E1,2.052000046E0,-9.564000130E0,6.270000339E-1
1.385145012E1,2.052000046E0,-9.564000130E0,6.270000339E-1
1.387145012E1,2.052000046E0,-9.564000130E0,6.270000339E-1
1.389145012E1,2.109000206E0,-9.583050728E0,6.649500132E-1
1.391145012E1,2.109000206E0,-9.583050728E0,6.649500132E-1
1.393145012E1,2.052000046E0,-9.544950485E0,6.460500360E-1
1.395145012E1,2.052000046E0,-9.544950485E0,6.460500360E-1
1.397145012E1,2.071050167E0,-9.564000130E0,6.649500132E-1
1.399145012E1,2.071050167E0,-9.564000130E0,6.649500132E-1
1.401145012E1,2.071050167E0,-9.564000130E0,6.649500132E-1
1.403145012E1,2.052000046E0,-9.564000130E0,7.039500475E-1
1.405145012E1,2.052000046E0,-9.564000130E0,7.039500475E-1
1.407145012E1,2.052000046E0,-9.544950485E0,6.850500107E-1
1.409145012E1,2.052000046E0,-9.544950485E0,6.850500107E-1
1.411145012E1,2.089950085E0,-9.564000130E0,7.039500475E-1
1.413145012E1,2.071050167E0,-9.601950645E0,6.850500107E-1
1.415145012E1,2.071050167E0,-9.601950645E0,6.850500107E-1
1.417145012E1,2.071050167E0,-9.564000130E0,7.039500475E-1
1.419145012E1,2.071050167E0,-9.564000130E0,7.039500475E-1
1.421145012E1,2.032950163E0,-9.583050728E0,7.230000496E-1
1.423145012E1,2.032950163E0,-9.583050728E0,7.230000496E-1
1.425145012E1,2.032950163E0,-9.583050728E0,7.230000496E-1
1.427145012E1,2.014050007E0,-9.564000130E0,7.420500517E-1
1.429145012E1,2.014050007E0,-9.564000130E0,7.420500517E-1
1.431145012E1,2.014050007E0,-9.564000130E0,7.420500517E-1
1.433145012E1,2.014050007E0,-9.564000130E0,7.420500517E-1
1.435145012E1,2.071050167E0,-9.601950645E0,7.230000496E-1
1.437145012E1,2.032950163E0,-9.601950645E0,7.039500475E-1
1.439145012E1,2.032950163E0,-9.601950645E0,7.039500475E-1
1.441145012E1,2.014050007E0,-9.544950485E0,7.420500517E-1
1.443145012E1,2.014050007E0,-9.544950485E0,7.420500517E-1
1.445145012E1,2.014050007E0,-9.583050728E0,7.039500475E-1
1.447145012E1,2.014050007E0,-9.583050728E0,7.039500475E-1
1.449145012E1,2.014050007E0,-9.583050728E0,7.039500475E-1
1.451145012E1,2.185950041E0,-9.564000130E0,7.039500475E-1
1.453145012E1,2.185950041E0,-9.564000130E0,7.039500475E-1
1.455145012E1,2.185950041E0,-9.564000130E0,7.039500475E-1
1.457145012E1,2.185950041E0,-9.564000130E0,7.039500475E-1
1.459145012E1,2.185950041E0,-9.564000130E0,7.039500475E-1
1.461145012E1,1.879950047E0,-9.679050446E0,6.460500360E-1
1.463145012E1,1.879950047E0,-9.679050446E0,6.460500360E-1
1.465145012E1,1.899000049E0,-9.660000801E0,6.850500107E-1
1.467145012E1,1.899000049E0,-9.660000801E0,6.850500107E-1
1.469145012E1,1.993950129E0,-9.775050163E0,6.850500107E-1
1.471145012E1,1.956000090E0,-1.002405071E1,7.039500475E-1
1.473145012E1,1.956000090E0,-1.002405071E1,7.039500475E-1
1.475145012E1,1.573050022E0,-9.468000412E0,7.990500331E-1
1.477145012E1,1.573050022E0,-9.468000412E0,7.990500331E-1
1.479145012E1,1.591950059E0,-9.448950768E0,7.609500289E-1
1.481145012E1,1.591950059E0,-9.448950768E0,7.609500289E-1
1.483145012E1,1.918050051E0,-9.391950607E0,9.139500260E-1
1.485145012E1,1.956000090E0,-9.564000130E0,8.569500446E-1
1.487145012E1,1.956000090E0,-9.564000130E0,8.569500446E-1
1.489145012E1,2.089950085E0,-9.526050568E0,6.270000339E-1
1.491145012E1,2.089950085E0,-9.526050568E0,6.270000339E-1
1.493145012E1,2.089950085E0,-9.526050568E0,6.270000339E-1
1.495145012E1,1.975050092E0,-9.660000801E0,7.420500517E-1
1.497145012E1,1.975050092E0,-9.660000801E0,7.420500517E-1
1.499145012E1,1.840950131E0,-9.697950363E0,9.340500236E-1
1.501145012E1,1.840950131E0,-9.697950363E0,9.340500236E-1
1.503145012E1,1.879950047E0,-9.487950325E0,7.800000310E-1
1.505145012E1,1.879950047E0,-9.487950325E0,7.800000310E-1
1.507145012E1,1.879950047E0,-9.487950325E0,7.800000310E-1
1.509145012E1,2.109000206E0,-9.564000130E0,6.460500360E-1
1.511145012E1,2.109000206E0,-9.564000130E0,6.460500360E-1
1.513145012E1,2.167050123E0,-9.564000130E0,6.649500132E-1
1.515145012E1,2.167050123E0,-9.564000130E0,6.649500132E-1
1.517145012E1,2.224050045E0,-9.544950485E0,7.420500517E-1
1.519145012E1,2.262000084E0,-9.526050568E0,7.800000310E-1
1.521145012E1,2.262000084E0,-9.526050568E0,7.800000310E-1
1.523145012E1,2.338950157E0,-9.468000412E0,6.850500107E-1
1.525145012E1,2.338950157E0,-9.468000412E0,6.850500107E-1
1.527145012E1,2.338950157E0,-9.468000412E0,6.850500107E-1
1.529145012E1,2.338950157E0,-9.468000412E0,6.850500107E-1
1.531145012E1,2.338950157E0,-9.468000412E0,6.850500107E-1
1.533145012E1,2.109000206E0,-9.564000130E0,5.890500546E-1
1.535145012E1,2.109000206E0,-9.564000130E0,5.890500546E-1
1.537145012E1,2.071050167E0,-9.526050568E0,6.850500107E-1
1.539145012E1,2.071050167E0,-9.526050568E0,6.850500107E-1
1.541145012E1,2.052000046E0,-9.564000130E0,6.649500132E-1
1.543145012E1,2.071050167E0,-9.564000130E0,6.270000339E-1
1.545145012E1,2.071050167E0,-9.564000130E0,6.270000339E-1
1.547145012E1,2.205000162E0,-9.526050568E0,6.270000339E-1
1.549145012E1,2.205000162E0,-9.526050568E0,6.270000339E-1
1.551145012E1,2.242950201E0,-9.526050568E0,6.079500318E-1
1.553145012E1,2.242950201E0,-9.526050568E0,6.079500318E-1
1.555145012E1,2.242950201E0,-9.526050568E0,6.079500318E-1
1.557145012E1,2.109000206E0,-9.564000130E0,6.850500107E-1
1.559145012E1,2.109000206E0,-9.564000130E0,6.850500107E-1
1.561145012E1,2.014050007E0,-9.526050568E0,6.079500318E-1
1.563145012E1,2.014050007E0,-9.526050568E0,6.079500318E-1
1.565145012E1,2.014050007E0,-9.526050568E0,6.079500318E-1
1.567145012E1,2.032950163E0,-9.564000130E0,6.270000339E-1
1.569145012E1,2.032950163E0,-9.564000130E0,6.270000339E-1
1.571145012E1,2.148000002E0,-9.564000130E0,5.700000525E-1
1.573145012E1,2.148000002E0,-9.564000130E0,5.700000525E-1
1.575145012E1,2.167050123E0,-9.601950645E0,5.890500546E-1
1.577145012E1,2.128050089E0,-9.564000130E0,5.890500546E-1
1.579145012E1,2.128050089E0,-9.564000130E0,5.890500546E-1
1.581145012E1,2.032950163E0,-9.526050568E0,5.700000525E-1
1.583145012E1,2.032950163E0,-9.526050568E0,5.700000525E-1
1.585145012E1,1.993950129E0,-9.544950485E0,6.079500318E-1
1.587145012E1,1.993950129E0,-9.544950485E0,6.079500318E-1
1.589145012E1,1.993950129E0,-9.544950485E0,6.079500318E-1
1.591145012E1,1.993950129E0,-9.601950645E0,6.079500318E-1
1.593145012E1,1.993950129E0,-9.601950645E0,6.079500318E-1
1.595145012E1,2.032950163E0,-9.564000130E0,5.310000181E-1
1.597145012E1,2.032950163E0,-9.564000130E0,5.310000181E-1
1.599145012E1,2.032950163E0,-9.564000130E0,5.310000181E-1
1.601145012E1,2.014050007E0,-9.583050728E0,4.930500090E-1
1.603145012E1,2.014050007E0,-9.583050728E0,4.930500090E-1
1.605145012E1,1.993950129E0,-9.583050728E0,5.310000181E-1
1.607145012E1,1.993950129E0,-9.583050728E0,5.310000181E-1
1.609145012E1,2.014050007E0,-9.583050728E0,5.310000181E-1
1.611145012E1,2.014050007E0,-9.583050728E0,5.310000181E-1
1.613145012E1,2.014050007E0,-9.583050728E0,5.310000181E-1
1.615145012E1,1.975050092E0,-9.601950645E0,4.740000367E-1
1.617145012E1,1.975050092E0,-9.601950645E0,4.740000367E-1
1.619145012E1,1.956000090E0,-9.601950645E0,4.740000367E-1
1.621145012E1,1.956000090E0,-9.601950645E0,4.740000367E-1
1.623145012E1,1.956000090E0,-9.601950645E0,4.740000367E-1
1.625145012E1,1.879950047E0,-9.601950645E0,4.549500346E-1
1.627145012E1,1.879950047E0,-9.601950645E0,4.549500346E-1
1.629145012E1,1.879950047E0,-9.601950645E0,4.549500346E-1
1.631145012E1,1.879950047E0,-9.601950645E0,4.549500346E-1
1.633145012E1,1.993950129E0,-9.564000130E0,4.549500346E-1
1.635145012E1,1.993950129E0,-9.564000130E0,4.549500346E-1
1.637145012E1,1.993950129E0,-9.564000130E0,4.549500346E-1
1.639145012E1,2.089950085E0,-9.564000130E0,3.780000210E-1
1.641145012E1,2.089950085E0,-9.564000130E0,3.780000210E-1
1.643145012E1,2.109000206E0,-9.544950485E0,3.210000098E-1
1.645145012E1,2.109000206E0,-9.544950485E0,3.210000098E-1
1.647145012E1,2.109000206E0,-9.544950485E0,3.210000098E-1
1.649145012E1,2.109000206E0,-9.564000130E0,3.210000098E-1
1.651145012E1,2.109000206E0,-9.564000130E0,3.210000098E-1
1.653145012E1,1.993950129E0,-9.526050568E0,3.589500189E-1
1.655145012E1,1.993950129E0,-9.526050568E0,3.589500189E-1
1.657145012E1,1.993950129E0,-9.544950485E0,3.210000098E-1
1.659145012E1,1.993950129E0,-9.544950485E0,3.210000098E-1
1.661145012E1,1.993950129E0,-9.544950485E0,3.210000098E-1
1.663145012E1,2.089950085E0,-9.526050568E0,2.820000052E-1
1.665145012E1,2.089950085E0,-9.526050568E0,2.820000052E-1
1.667145012E1,2.128050089E0,-9.583050728E0,2.629500031E-1
1.669145012E1,2.128050089E0,-9.583050728E0,2.629500031E-1
1.671145012E1,2.128050089E0,-9.583050728E0,2.629500031E-1
1.673145012E1,2.071050167E0,-9.564000130E0,2.629500031E-1
1.675145012E1,2.071050167E0,-9.564000130E0,2.629500031E-1
1.677145012E1,1.956000090E0,-9.583050728E0,3.210000098E-1
1.679145012E1,1.956000090E0,-9.583050728E0,3.210000098E-1
1.681145012E1,1.956000090E0,-9.583050728E0,3.210000098E-1
1.683145012E1,1.918050051E0,-9.564000130E0,3.780000210E-1
1.685145012E1,1.918050051E0,-9.564000130E0,3.780000210E-1
1.687145012E1,1.899000049E0,-9.583050728E0,3.589500189E-1
1.689145012E1,1.899000049E0,-9.583050728E0,3.589500189E-1
1.691145012E1,1.918050051E0,-9.622050285E0,3.970500231E-1
1.693145012E1,1.918050051E0,-9.622050285E0,3.970500231E-1
1.695145012E1,1.918050051E0,-9.622050285E0,3.970500231E-1
1.697145012E1,1.726050138E0,-9.583050728E0,4.360500276E-1
1.699145012E1,1.726050138E0,-9.583050728E0,4.360500276E-1
1.701145012E1,1.803000093E0,-9.640950203E0,4.740000367E-1
1.703145012E1,1.803000093E0,-9.640950203E0,4.740000367E-1
1.705145012E1,1.803000093E0,-9.640950203E0,4.740000367E-1
1.707145012E1,1.975050092E0,-9.622050285E0,3.970500231E-1
1.709145012E1,1.975050092E0,-9.622050285E0,3.970500231E-1
1.711145012E1,1.918050051E0,-9.601950645E0,3.589500189E-1
1.713145012E1,1.918050051E0,-9.601950645E0,3.589500189E-1
1.715145012E1,1.879950047E0,-9.622050285E0,4.159500301E-1
1.717145012E1,1.879950047E0,-9.622050285E0,4.159500301E-1
1.719145012E1,1.879950047E0,-9.622050285E0,4.159500301E-1
1.721145012E1,1.803000093E0,-9.564000130E0,5.310000181E-1
1.723145012E1,1.803000093E0,-9.564000130E0,5.310000181E-1
1.725145012E1,1.879950047E0,-9.622050285E0,4.930500090E-1
1.727145012E1,1.879950047E0,-9.622050285E0,4.930500090E-1
1.729145012E1,1.879950047E0,-9.622050285E0,4.930500090E-1
1.731145012E1,1.899000049E0,-9.601950645E0,4.360500276E-1
1.733145012E1,1.899000049E0,-9.601950645E0,4.360500276E-1
1.735145012E1,1.899000049E0,-9.601950645E0,4.740000367E-1
1.737145012E1,1.899000049E0,-9.601950645E0,4.740000367E-1
1.739145012E1,1.899000049E0,-9.601950645E0,5.119500160E-1
1.741145012E1,1.899000049E0,-9.601950645E0,5.119500160E-1
1.743145012E1,1.899000049E0,-9.601950645E0,5.119500160E-1
1.745145012E1,1.936950088E0,-9.660000801E0,4.360500276E-1
1.747145012E1,1.936950088E0,-9.660000801E0,4.360500276E-1
1.749145012E1,1.879950047E0,-9.640950203E0,3.589500189E-1
1.751145012E1,1.879950047E0,-9.640950203E0,3.589500189E-1
1.753145012E1,1.879950047E0,-9.640950203E0,3.589500189E-1
1.755145012E1,1.726050138E0,-9.697950363E0,3.019500077E-1
1.757145012E1,1.726050138E0,-9.697950363E0,3.019500077E-1
1.759145012E1,1.726050138E0,-9.601950645E0,3.400500119E-1
1.761145012E1,1.726050138E0,-9.601950645E0,3.400500119E-1
1.763145012E1,1.840950131E0,-9.601950645E0,3.589500189E-1
1.765145012E1,1.840950131E0,-9.601950645E0,3.589500189E-1
1.767145012E1,1.840950131E0,-9.601950645E0,3.589500189E-1
1.769145012E1,2.109000206E0,-9.601950645E0,2.440500110E-1
1.771145012E1,2.109000206E0,-9.601950645E0,2.440500110E-1
1.773145012E1,2.128050089E0,-9.487950325E0,3.405000269E-2
1.775145012E1,2.128050089E0,-9.487950325E0,3.405000269E-2
1.777145012E1,2.128050089E0,-9.487950325E0,3.405000269E-2
1.779145012E1,2.148000002E0,-9.526050568E0,1.480500102E-1
1.781145012E1,2.148000002E0,-9.526050568E0,1.480500102E-1
1.783145012E1,2.205000162E0,-9.526050568E0,1.480500102E-1
1.785145012E1,2.205000162E0,-9.526050568E0,1.480500102E-1
1.787145012E1,2.167050123E0,-9.564000130E0,5.295000225E-2
1.789145012E1,2.167050123E0,-9.564000130E0,5.295000225E-2
1.791145012E1,2.167050123E0,-9.564000130E0,5.295000225E-2
1.793145012E1,2.109000206E0,-9.526050568E0,3.405000269E-2
1.795145012E1,2.109000206E0,-9.526050568E0,3.405000269E-2
1.797145012E1,2.128050089E0,-9.583050728E0,1.395000052E-2
1.799145012E1,2.128050089E0,-9.583050728E0,1.395000052E-2
1.801145012E1,2.071050167E0,-9.507000923E0,-1.189500093E-1
1.803145012E1,2.071050167E0,-9.487950325E0,-1.189500093E-1
1.805145012E1,2.071050167E0,-9.487950325E0,-1.189500093E-1
1.807145012E1,2.167050123E0,-9.526050568E0,-7.995000482E-2
1.809145012E1,2.167050123E0,-9.526050568E0,-7.995000482E-2
1.811145012E1,2.167050123E0,-9.526050568E0,-7.995000482E-2
1.813145012E1,2.205000162E0,-9.448950768E0,-1.189500093E-1
1.815145012E1,2.205000162E0,-9.448950768E0,-1.189500093E-1
1.817145012E1,2.224050045E0,-9.487950325E0,-1.759500057E-1
1.819145012E1,2.224050045E0,-9.487950325E0,-1.759500057E-1
1.821145012E1,2.205000162E0,-9.507000923E0,-1.380000114E-1
1.823145012E1,2.205000162E0,-9.507000923E0,-1.380000114E-1
1.825145012E1,2.205000162E0,-9.507000923E0,-1.380000114E-1
1.827145012E1,2.205000162E0,-9.487950325E0,-2.340000123E-1
1.829145012E1,2.205000162E0,-9.487950325E0,-2.340000123E-1
1.831145012E1,2.205000162E0,-9.487950325E0,-2.340000123E-1
1.833145012E1,2.205000162E0,-9.487950325E0,-2.340000123E-1
1.835145012E1,2.128050089E0,-9.507000923E0,-2.140500098E-1
1.837145012E1,2.167050123E0,-9.526050568E0,-2.140500098E-1
1.839145012E1,2.167050123E0,-9.526050568E0,-2.140500098E-1
1.841145012E1,2.109000206E0,-9.487950325E0,-1.950000077E-1
1.843145012E1,2.109000206E0,-9.487950325E0,-1.950000077E-1
1.845145012E1,2.128050089E0,-9.583050728E0,-1.570500135E-1
1.847145012E1,2.128050089E0,-9.583050728E0,-1.570500135E-1
1.849145012E1,2.128050089E0,-9.583050728E0,-1.570500135E-1
1.851145012E1,2.089950085E0,-9.544950485E0,-1.950000077E-1
1.853145012E1,2.089950085E0,-9.544950485E0,-1.950000077E-1
1.855145012E1,2.205000162E0,-9.487950325E0,-2.340000123E-1
1.857145012E1,2.205000162E0,-9.487950325E0,-2.340000123E-1
1.859145012E1,2.224050045E0,-9.507000923E0,-2.530499995E-1
1.861145012E1,2.205000162E0,-9.544950485E0,-2.140500098E-1
1.863145012E1,2.205000162E0,-9.544950485E0,-2.140500098E-1
1.865145012E1,2.089950085E0,-9.601950645E0,-2.910000086E-1
1.867145012E1,2.089950085E0,-9.601950645E0,-2.910000086E-1
1.869145012E1,2.148000002E0,-9.487950325E0,-2.340000123E-1
1.871145012E1,2.148000002E0,-9.487950325E0,-2.340000123E-1
1.873145012E1,2.148000002E0,-9.487950325E0,-2.340000123E-1
1.875145012E1,2.052000046E0,-9.526050568E0,-1.189500093E-1
1.877145012E1,2.052000046E0,-9.526050568E0,-1.189500093E-1
1.879145012E1,2.032950163E0,-9.448950768E0,-1.380000114E-1
1.881145012E1,2.032950163E0,-9.448950768E0,-1.380000114E-1
1.883145012E1,2.032950163E0,-9.448950768E0,-1.380000114E-1
1.885145012E1,2.014050007E0,-9.526050568E0,-2.910000086E-1
1.887145012E1,2.014050007E0,-9.526050568E0,-2.910000086E-1
1.889145012E1,1.993950129E0,-9.526050568E0,-3.289500177E-1
1.891145012E1,1.993950129E0,-9.526050568E0,-3.289500177E-1
1.893145012E1,2.089950085E0,-9.526050568E0,-3.870000243E-1
1.895145012E1,2.089950085E0,-9.526050568E0,-3.870000243E-1
1.897145012E1,2.089950085E0,-9.526050568E0,-3.870000243E-1
1.899145012E1,2.205000162E0,-9.622050285E0,-3.100500107E-1
1.901145012E1,2.205000162E0,-9.622050285E0,-3.100500107E-1
1.903145012E1,2.109000206E0,-9.622050285E0,-4.440000355E-1
1.905145012E1,2.109000206E0,-9.622050285E0,-4.440000355E-1
1.907145012E1,1.936950088E0,-9.583050728E0,-3.679500222E-1
1.909145012E1,1.899000049E0,-9.583050728E0,-3.480000198E-1
1.911145012E1,1.899000049E0,-9.583050728E0,-3.480000198E-1
1.913145012E1,1.879950047E0,-9.507000923E0,-2.910000086E-1
1.915145012E1,1.879950047E0,-9.507000923E0,-2.910000086E-1
1.917145012E1,1.879950047E0,-9.507000923E0,-2.910000086E-1
1.919145012E1,2.109000206E0,-9.622050285E0,-4.630500078E-1
1.921145012E1,2.109000206E0,-9.622050285E0,-4.630500078E-1
1.923145012E1,2.491950035E0,-9.277050018E0,-7.510500550E-1
1.925145012E1,2.491950035E0,-9.277050018E0,-7.510500550E-1
1.927145012E1,2.626050234E0,-9.373050690E0,-6.360000372E-1
1.929145012E1,2.626050234E0,-9.373050690E0,-6.360000372E-1
1.931145012E1,2.626050234E0,-9.373050690E0,-6.360000372E-1
1.933145012E1,1.573050022E0,-9.544950485E0,-8.850000501E-1
1.935145012E1,1.573050022E0,-9.544950485E0,-8.850000501E-1
1.937145012E1,2.224050045E0,-9.468000412E0,-9.420000315E-1
1.939145012E1,2.224050045E0,-9.468000412E0,-9.420000315E-1
1.941145012E1,2.224050045E0,-9.468000412E0,-9.420000315E-1
1.943145012E1,2.358000040E0,-9.487950325E0,-6.739500165E-1
1.945145012E1,2.358000040E0,-9.487950325E0,-6.739500165E-1
1.947145012E1,1.879950047E0,-9.507000923E0,-1.095000029E0
1.949145012E1,1.879950047E0,-9.507000923E0,-1.095000029E0
1.951145012E1,1.687950134E0,-9.430050850E0,-7.699500322E-1
1.953145012E1,1.687950134E0,-9.430050850E0,-7.699500322E-1
1.955145012E1,1.687950134E0,-9.430050850E0,-7.699500322E-1
1.957145012E1,2.205000162E0,-9.411000252E0,-4.630500078E-1
1.959145012E1,2.205000162E0,-9.411000252E0,-4.630500078E-1
1.961145012E1,1.975050092E0,-9.622050285E0,-1.114050031E0
1.963145012E1,1.975050092E0,-9.622050285E0,-1.114050031E0
1.965145012E1,1.975050092E0,-9.622050285E0,-1.114050031E0
1.967145012E1,1.744950056E0,-9.448950768E0,-8.850000501E-1
1.969145012E1,1.744950056E0,-9.448950768E0,-8.850000501E-1
1.971145012E1,2.071050167E0,-9.526050568E0,-3.679500222E-1
1.973145012E1,2.071050167E0,-9.526050568E0,-3.679500222E-1
1.975145012E1,2.148000002E0,-9.411000252E0,-7.890000343E-1
1.977145012E1,2.148000002E0,-9.411000252E0,-7.890000343E-1
1.979145012E1,2.148000002E0,-9.411000252E0,-7.890000343E-1
1.981145012E1,2.071050167E0,-9.564000130E0,-8.269500136E-1
1.983145012E1,2.071050167E0,-9.564000130E0,-8.269500136E-1
1.985145012E1,2.032950163E0,-9.526050568E0,-7.309500575E-1
1.987145012E1,2.032950163E0,-9.526050568E0,-7.309500575E-1
1.989145012E1,2.032950163E0,-9.526050568E0,-7.309500575E-1
1.991145012E1,2.185950041E0,-9.487950325E0,-6.930000186E-1
1.993145012E1,2.185950041E0,-9.487950325E0,-6.930000186E-1
1.995145012E1,2.205000162E0,-9.507000923E0,-7.510500550E-1
1.997145012E1,2.205000162E0,-9.507000923E0,-7.510500550E-1
1.999145012E1,2.128050089E0,-9.487950325E0,-8.269500136E-1
2.001145012E1,2.128050089E0,-9.487950325E0,-8.269500136E-1
2.003145012E1,2.128050089E0,-9.487950325E0,-8.269500136E-1
2.005145012E1,1.936950088E0,-9.544950485E0,-7.120500207E-1
2.007145012E1,1.936950088E0,-9.544950485E0,-7.120500207E-1
2.009145012E1,1.956000090E0,-9.583050728E0,-7.510500550E-1
2.011145012E1,1.956000090E0,-9.583050728E0,-7.510500550E-1
2.013145012E1,1.956000090E0,-9.583050728E0,-7.510500550E-1
2.015145012E1,2.052000046E0,-9.487950325E0,-8.080500364E-1
2.017145012E1,2.052000046E0,-9.487950325E0,-8.080500364E-1
2.019145012E1,2.167050123E0,-9.544950485E0,-7.510500550E-1
2.021145012E1,2.167050123E0,-9.544950485E0,-7.510500550E-1
2.023145012E1,2.167050123E0,-9.544950485E0,-7.510500550E-1
2.025145012E1,2.167050123E0,-9.640950203E0,-9.229500294E-1
2.027145012E1,2.167050123E0,-9.640950203E0,-9.229500294E-1
2.029145012E1,2.167050123E0,-9.640950203E0,-9.229500294E-1
2.031145012E1,2.167050123E0,-9.640950203E0,-9.229500294E-1
2.033145012E1,1.956000090E0,-9.430050850E0,-9.040500522E-1
2.035145012E1,1.956000090E0,-9.430050850E0,-9.040500522E-1
2.037145012E1,1.956000090E0,-9.430050850E0,-9.040500522E-1
2.039145012E1,1.956000090E0,-9.373050690E0,-9.420000315E-1
2.041145012E1,1.956000090E0,-9.373050690E0,-9.420000315E-1
2.043145012E1,2.071050167E0,-9.430050850E0,-9.610500336E-1
2.045145012E1,2.071050167E0,-9.430050850E0,-9.610500336E-1
2.047145012E1,2.185950041E0,-9.487950325E0,-8.460000157E-1
2.049145012E1,2.185950041E0,-9.564000130E0,-7.510500550E-1
2.051145012E1,2.185950041E0,-9.564000130E0,-7.510500550E-1
2.053145012E1,2.167050123E0,-9.544950485E0,-7.890000343E-1
2.055145012E1,2.167050123E0,-9.544950485E0,-7.890000343E-1
2.057145012E1,2.167050123E0,-9.544950485E0,-7.890000343E-1
2.059145012E1,2.167050123E0,-9.544950485E0,-7.890000343E-1
2.061145012E1,2.167050123E0,-9.544950485E0,-7.890000343E-1
2.063145012E1,1.956000090E0,-9.870000839E0,-8.269500136E-1
2.065145012E1,1.956000090E0,-9.870000839E0,-8.269500136E-1
2.067145012E1,2.109000206E0,-9.105000496E0,-6.550500393E-1
2.069145012E1,2.109000206E0,-9.105000496E0,-6.550500393E-1
2.071145012E1,2.301000118E0,-8.913000107E0,1.099500060E-1
2.073145012E1,2.301000118E0,-8.950950623E0,3.210000098E-1
2.075145012E1,2.301000118E0,-8.950950623E0,3.210000098E-1
2.077145012E1,2.416050196E0,-9.315000534E0,-1.570500135E-1
2.079145012E1,2.416050196E0,-9.315000534E0,-1.570500135E-1
2.081145012E1,2.358000040E0,-9.544950485E0,-7.699500322E-1
2.083145012E1,2.358000040E0,-9.544950485E0,-7.699500322E-1
2.085145012E1,2.358000040E0,-9.544950485E0,-7.699500322E-1
2.087145012E1,2.032950163E0,-9.544950485E0,-4.440000355E-1
2.089145012E1,2.032950163E0,-9.544950485E0,-4.440000355E-1
2.091145012E1,2.032950163E0,-9.544950485E0,-4.440000355E-1
2.093145012E1,2.032950163E0,-9.544950485E0,-4.440000355E-1
2.095145012E1,2.032950163E0,-9.544950485E0,-4.440000355E-1
2.097145012E1,2.128050089E0,-9.028050423E0,2.820000052E-1
2.099145012E1,2.128050089E0,-9.028050423E0,2.820000052E-1
2.101145012E1,2.550000191E0,-9.334050179E0,-6.105000153E-2
2.103145012E1,2.550000191E0,-9.334050179E0,-6.105000153E-2
2.105145012E1,2.167050123E0,-9.526050568E0,-2.910000086E-1
2.107145012E1,2.167050123E0,-9.526050568E0,-2.910000086E-1
2.109145012E1,2.167050123E0,-9.526050568E0,-2.910000086E-1
2.111145012E1,1.669050097E0,-1.000500011E1,-5.970000029E-1
2.113145012E1,1.669050097E0,-1.000500011E1,-5.970000029E-1
2.115145012E1,2.358000040E0,-9.162000656E0,8.569500446E-1
2.117145012E1,2.358000040E0,-9.162000656E0,8.569500446E-1
2.119145012E1,2.569050074E0,-9.315000534E0,1.221000075E0
2.121145012E1,2.587950230E0,-9.391950607E0,1.009950042E0
2.123145012E1,2.587950230E0,-9.391950607E0,1.009950042E0
2.125145012E1,2.358000040E0,-9.391950607E0,4.360500276E-1
2.127145012E1,2.358000040E0,-9.391950607E0,4.360500276E-1
2.129145012E1,2.358000040E0,-9.391950607E0,4.360500276E-1
2.131145012E1,2.281949997E0,-1.019595051E1,1.480500102E-1
2.133145012E1,2.281949997E0,-1.019595051E1,1.480500102E-1
2.135145012E1,2.358000040E0,-9.679050446E0,1.290000081E-1
2.137145012E1,2.358000040E0,-9.679050446E0,1.290000081E-1
2.139145012E1,2.242950201E0,-9.238950729E0,6.270000339E-1
2.141145012E1,2.242950201E0,-9.238950729E0,6.270000339E-1
2.143145012E1,2.242950201E0,-9.238950729E0,6.270000339E-1
2.145145012E1,2.262000084E0,-9.526050568E0,1.507950068E0
2.147145012E1,2.262000084E0,-9.526050568E0,1.507950068E0
2.149145012E1,2.587950230E0,-9.601950645E0,9.910500646E-1
2.151145012E1,2.587950230E0,-9.601950645E0,9.910500646E-1
2.153145012E1,2.320050001E0,-9.544950485E0,3.780000210E-1
2.155145012E1,2.185950041E0,-9.544950485E0,3.019500077E-1
2.157145012E1,2.185950041E0,-9.544950485E0,3.019500077E-1
2.159145012E1,2.491950035E0,-9.622050285E0,9.720000625E-1
2.161145012E1,2.491950035E0,-9.622050285E0,9.720000625E-1
2.163145012E1,2.491950035E0,-9.622050285E0,9.720000625E-1
2.165145012E1,2.491950035E0,-9.622050285E0,9.720000625E-1
2.167145012E1,2.491950035E0,-9.622050285E0,9.720000625E-1
2.169145012E1,2.491950035E0,-9.622050285E0,9.720000625E-1
2.171145012E1,2.491950035E0,-9.622050285E0,9.720000625E-1
2.173145012E1,2.587950230E0,-9.544950485E0,1.105949998E0
2.175145012E1,2.587950230E0,-9.544950485E0,1.105949998E0
2.177145012E1,2.569050074E0,-9.583050728E0,1.240050077E0
2.179145012E1,2.434950113E0,-9.468000412E0,1.258950114E0
2.181145012E1,2.434950113E0,-9.468000412E0,1.258950114E0
2.183145012E1,2.281949997E0,-9.468000412E0,1.336050034E0
2.185145012E1,2.281949997E0,-9.468000412E0,1.336050034E0
2.187145012E1,2.358000040E0,-9.601950645E0,1.374000072E0
2.189145012E1,2.358000040E0,-9.601950645E0,1.374000072E0
2.191145012E1,2.397000074E0,-9.448950768E0,1.336050034E0
2.193145012E1,2.338950157E0,-9.468000412E0,1.221000075E0
2.195145012E1,2.338950157E0,-9.468000412E0,1.221000075E0
2.197145012E1,2.338950157E0,-9.468000412E0,1.221000075E0
2.199145012E1,2.338950157E0,-9.468000412E0,1.221000075E0
2.201145012E1,2.338950157E0,-9.468000412E0,1.221000075E0
2.203145012E1,2.587950230E0,-9.411000252E0,5.700000525E-1
2.205145012E1,2.587950230E0,-9.411000252E0,5.700000525E-1
2.207145012E1,3.258000135E0,-9.277050018E0,9.910500646E-1
2.209145012E1,3.258000135E0,-9.277050018E0,9.910500646E-1
2.211145012E1,3.354000092E0,-9.373050690E0,1.258950114E0
2.213145012E1,3.354000092E0,-9.373050690E0,1.258950114E0
2.215145012E1,3.354000092E0,-9.373050690E0,1.258950114E0
2.217145012E1,2.703000069E0,-9.430050850E0,1.278000116E0
2.219145012E1,2.703000069E0,-9.430050850E0,1.278000116E0
2.221145012E1,1.744950056E0,-9.583050728E0,9.139500260E-1
2.223145012E1,1.744950056E0,-9.583050728E0,9.139500260E-1
2.225145012E1,1.803000093E0,-9.544950485E0,9.720000625E-1
2.227145012E1,2.052000046E0,-9.391950607E0,1.048050046E0
2.229145012E1,2.052000046E0,-9.391950607E0,1.048050046E0
2.231145012E1,2.052000046E0,-9.391950607E0,1.048050046E0
2.233145012E1,2.052000046E0,-9.391950607E0,1.048050046E0
2.235145012E1,2.052000046E0,-9.391950607E0,1.048050046E0
2.237145012E1,2.052000046E0,-9.391950607E0,1.048050046E0
2.239145012E1,2.052000046E0,-9.391950607E0,1.048050046E0
2.241145012E1,2.338950157E0,-9.487950325E0,9.529500604E-1
2.243145012E1,2.338950157E0,-9.487950325E0,9.529500604E-1
2.245145012E1,2.416050196E0,-9.448950768E0,1.144050002E0
2.247145012E1,2.416050196E0,-9.448950768E0,1.144050002E0
2.249145012E1,2.416050196E0,-9.448950768E0,1.144050002E0
2.251145012E1,2.703000069E0,-9.334050179E0,1.354950070E0
2.253145012E1,2.703000069E0,-9.334050179E0,1.354950070E0
2.255145012E1,2.626050234E0,-9.448950768E0,1.068000078E0
2.257145012E1,2.626050234E0,-9.448950768E0,1.068000078E0
2.259145012E1,2.799000025E0,-9.448950768E0,1.162950039E0
2.261145012E1,2.856000185E0,-9.391950607E0,1.125000000E0
2.263145012E1,2.856000185E0,-9.391950607E0,1.125000000E0
2.265145012E1,2.760000229E0,-9.448950768E0,1.125000000E0
2.267145012E1,2.760000229E0,-9.448950768E0,1.125000000E0
2.269145012E1,2.683950186E0,-9.315000534E0,1.374000072E0
2.271145012E1,2.683950186E0,-9.315000534E0,1.374000072E0
2.273145012E1,2.683950186E0,-9.315000534E0,1.374000072E0
2.275145012E1,2.914050102E0,-9.448950768E0,1.756950140E0
2.277145012E1,2.914050102E0,-9.448950768E0,1.756950140E0
2.279145012E1,2.914050102E0,-9.448950768E0,1.756950140E0
2.281145012E1,2.914050102E0,-9.448950768E0,1.756950140E0
2.283145012E1,1.650000095E0,-9.622050285E0,4.930500090E-1
2.285145012E1,1.438950062E0,-9.679050446E0,3.405000269E-2
2.287145012E1,1.438950062E0,-9.679050446E0,3.405000269E-2
2.289145012E1,2.089950085E0,-9.391950607E0,-3.679500222E-1
2.291145012E1,2.089950085E0,-9.391950607E0,-3.679500222E-1
2.293145012E1,2.722050190E0,-9.373050690E0,6.079500318E-1
2.295145012E1,2.722050190E0,-9.373050690E0,6.079500318E-1
2.297145012E1,1.707000136E0,-9.352950096E0,5.310000181E-1
2.299145012E1,1.458000064E0,-9.487950325E0,1.680000126E-1
2.301145012E1,1.458000064E0,-9.487950325E0,1.680000126E-1
2.303145012E1,1.497000098E0,-9.640950203E0,1.395000052E-2
2.305145012E1,1.497000098E0,-9.640950203E0,1.395000052E-2
2.307145012E1,1.497000098E0,-9.640950203E0,1.395000052E-2
2.309145012E1,1.055999994E0,-9.468000412E0,3.589500189E-1
2.311145012E1,1.055999994E0,-9.468000412E0,3.589500189E-1
2.313145012E1,7.879500389E-1,-9.813000679E0,-5.970000029E-1
2.315145012E1,7.879500389E-1,-9.813000679E0,-5.970000029E-1
2.317145012E1,7.879500389E-1,-9.813000679E0,-5.970000029E-1
2.319145012E1,7.879500389E-1,-9.813000679E0,-5.970000029E-1
2.321145012E1,7.879500389E-1,-9.813000679E0,-5.970000029E-1
2.323145012E1,2.071050167E0,-9.622050285E0,6.649500132E-1
2.325145012E1,2.071050167E0,-9.622050285E0,6.649500132E-1
2.327145012E1,1.840950131E0,-9.736050606E0,-4.830000103E-1
2.329145012E1,1.840950131E0,-9.736050606E0,-4.830000103E-1
2.331145012E1,1.840950131E0,-9.736050606E0,-4.830000103E-1
2.333145012E1,1.152000070E0,-9.583050728E0,-1.383000016E0
2.335145012E1,1.152000070E0,-9.583050728E0,-1.383000016E0
2.337145012E1,1.707000136E0,-9.775050163E0,-9.610500336E-1
2.339145012E1,1.707000136E0,-9.775050163E0,-9.610500336E-1
2.341145012E1,1.707000136E0,-9.775050163E0,-9.610500336E-1
2.343145012E1,1.707000136E0,-9.775050163E0,-9.610500336E-1
2.345145012E1,1.707000136E0,-9.775050163E0,-9.610500336E-1
2.347145012E1,1.420050025E0,-9.660000801E0,-1.324950099E0
2.349145012E1,1.420050025E0,-9.660000801E0,-1.324950099E0
2.351145012E1,1.516050100E0,-9.832050323E0,-1.708050132E0
2.353145012E1,1.516050100E0,-9.832050323E0,-1.708050132E0
2.355145012E1,1.516050100E0,-9.832050323E0,-1.708050132E0
2.357145012E1,1.477050066E0,-9.946950912E0,-2.244000196E0
2.359145012E1,1.477050066E0,-9.946950912E0,-2.244000196E0
2.361145012E1,2.338950157E0,-9.258000374E0,-1.440000057E0
2.363145012E1,2.338950157E0,-9.258000374E0,-1.440000057E0
2.365145012E1,2.740950108E0,-9.238950729E0,-1.324950099E0
2.367145012E1,2.703000069E0,-9.162000656E0,-1.095000029E0
2.369145012E1,2.703000069E0,-9.162000656E0,-1.095000029E0
2.371145012E1,2.242950201E0,-9.105000496E0,-8.850000501E-1
2.373145012E1,2.242950201E0,-9.105000496E0,-8.850000501E-1
2.375145012E1,2.148000002E0,-9.181050301E0,-1.191000104E0
2.377145012E1,2.148000002E0,-9.181050301E0,-1.191000104E0
2.379145012E1,2.148000002E0,-9.181050301E0,-1.191000104E0
2.381145012E1,2.014050007E0,-9.258000374E0,-1.383000016E0
2.383145012E1,2.014050007E0,-9.258000374E0,-1.383000016E0
2.385145012E1,1.726050138E0,-9.352950096E0,-7.510500550E-1
2.387145012E1,1.726050138E0,-9.352950096E0,-7.510500550E-1
2.389145012E1,1.726050138E0,-9.352950096E0,-7.510500550E-1
2.391145012E1,1.744950056E0,-9.448950768E0,-9.040500522E-1
2.393145012E1,1.744950056E0,-9.448950768E0,-9.040500522E-1
2.395145012E1,1.707000136E0,-9.660000801E0,-1.555050015E0
2.397145012E1,1.707000136E0,-9.660000801E0,-1.555050015E0
2.399145012E1,1.305000067E0,-9.162000656E0,-1.879950047E0
2.401145012E1,1.305000067E0,-9.162000656E0,-1.879950047E0
2.403145012E1,2.032950163E0,-9.583050728E0,-1.630950093E0
2.405145012E1,2.281949997E0,-9.334050179E0,-1.114050031E0
2.407145012E1,2.281949997E0,-9.334050179E0,-1.114050031E0
2.409145012E1,2.530950069E0,-9.181050301E0,-2.140500098E-1
2.411145012E1,2.530950069E0,-9.181050301E0,-2.140500098E-1
2.413145012E1,2.530950069E0,-9.181050301E0,-2.140500098E-1
2.415145012E1,2.893950224E0,-9.009000778E0,-5.590500236E-1
2.417145012E1,2.893950224E0,-9.009000778E0,-5.590500236E-1
2.419145012E1,3.009000063E0,-9.315000534E0,-1.440000057E0
2.421145012E1,3.009000063E0,-9.315000534E0,-1.440000057E0
2.423145012E1,2.089950085E0,-9.487950325E0,-1.306050062E0
2.425145012E1,2.089950085E0,-9.487950325E0,-1.306050062E0
2.427145012E1,2.089950085E0,-9.487950325E0,-1.306050062E0
2.429145012E1,9.409500360E-1,-9.756000519E0,-1.228950024E0
2.431145012E1,9.409500360E-1,-9.756000519E0,-1.228950024E0
2.433145012E1,2.377050161E0,-9.258000374E0,-6.360000372E-1
2.435145012E1,2.377050161E0,-9.258000374E0,-6.360000372E-1
2.437145012E1,2.550000191E0,-9.544950485E0,-3.679500222E-1
2.439145012E1,2.434950113E0,-9.526050568E0,-4.249500334E-1
2.441145012E1,2.434950113E0,-9.526050568E0,-4.249500334E-1
2.443145012E1,2.377050161E0,-9.334050179E0,-5.590500236E-1
2.445145012E1,2.377050161E0,-9.334050179E0,-5.590500236E-1
2.447145012E1,2.377050161E0,-9.334050179E0,-5.590500236E-1
2.449145012E1,2.377050161E0,-9.334050179E0,-5.590500236E-1
2.451145012E1,2.377050161E0,-9.334050179E0,-5.590500236E-1
2.453145012E1,1.899000049E0,-9.622050285E0,-4.440000355E-1
2.455145012E1,1.899000049E0,-9.622050285E0,-4.440000355E-1
2.457145012E1,1.554000020E0,-9.832050323E0,-6.739500165E-1
2.459145012E1,1.554000020E0,-9.832050323E0,-6.739500165E-1
2.461145012E1,1.650000095E0,-9.468000412E0,-2.719500065E-1
2.463145012E1,1.783950090E0,-9.448950768E0,-2.295000106E-2
2.465145012E1,1.783950090E0,-9.448950768E0,-2.295000106E-2
2.467145012E1,1.936950088E0,-9.640950203E0,2.820000052E-1
2.469145012E1,1.936950088E0,-9.640950203E0,2.820000052E-1
2.471145012E1,1.899000049E0,-9.601950645E0,2.059500068E-1
2.473145012E1,1.918050051E0,-9.564000130E0,1.480500102E-1
2.475145012E1,1.918050051E0,-9.564000130E0,1.480500102E-1
2.477145012E1,2.185950041E0,-9.468000412E0,1.480500102E-1
2.479145012E1,2.185950041E0,-9.468000412E0,1.480500102E-1
2.481145012E1,2.224050045E0,-9.640950203E0,2.629500031E-1
2.483145012E1,2.224050045E0,-9.640950203E0,2.629500031E-1
2.485145012E1,2.224050045E0,-9.640950203E0,2.629500031E-1
2.487145012E1,2.109000206E0,-9.411000252E0,3.970500231E-1
2.489145012E1,2.109000206E0,-9.411000252E0,3.970500231E-1
2.491145012E1,2.167050123E0,-9.622050285E0,4.360500276E-1
2.493145012E1,2.167050123E0,-9.622050285E0,4.360500276E-1
2.495145012E1,2.167050123E0,-9.622050285E0,4.360500276E-1
2.497145012E1,2.338950157E0,-9.583050728E0,4.740000367E-1
2.499145012E1,2.338950157E0,-9.583050728E0,4.740000367E-1
2.501145012E1,2.320050001E0,-9.622050285E0,6.079500318E-1
2.503145012E1,2.320050001E0,-9.622050285E0,6.079500318E-1
2.505145012E1,2.242950201E0,-9.487950325E0,7.230000496E-1
2.507145012E1,2.242950201E0,-9.487950325E0,7.230000496E-1
2.509145012E1,2.148000002E0,-9.468000412E0,9.340500236E-1
2.511145012E1,2.167050123E0,-9.507000923E0,1.029000044E0
2.513145012E1,2.167050123E0,-9.507000923E0,1.029000044E0
2.515145012E1,2.205000162E0,-9.373050690E0,1.182000041E0
2.517145012E1,2.205000162E0,-9.373050690E0,1.182000041E0
2.519145012E1,2.205000162E0,-9.373050690E0,1.182000041E0
2.521145012E1,2.128050089E0,-9.526050568E0,1.297050118E0
2.523145012E1,2.128050089E0,-9.526050568E0,1.297050118E0
2.525145012E1,2.071050167E0,-9.430050850E0,1.336050034E0
2.527145012E1,2.071050167E0,-9.430050850E0,1.336050034E0
2.529145012E1,2.071050167E0,-9.430050850E0,1.336050034E0
2.531145012E1,2.071050167E0,-9.430050850E0,1.336050034E0
2.533145012E1,2.071050167E0,-9.430050850E0,1.336050034E0
2.535145012E1,2.511000156E0,-9.870000839E0,1.162950039E0
2.537145012E1,2.511000156E0,-9.870000839E0,1.162950039E0
2.539145012E1,2.032950163E0,-9.832050323E0,2.250000089E-1
2.541145012E1,2.032950163E0,-9.832050323E0,2.250000089E-1
2.543145012E1,2.052000046E0,-9.717000008E0,-2.530499995E-1
2.545145012E1,2.262000084E0,-9.487950325E0,1.099500060E-1
2.547145012E1,2.262000084E0,-9.487950325E0,1.099500060E-1
2.549145012E1,2.416050196E0,-9.219000816E0,1.623000026E0
2.551145012E1,2.416050196E0,-9.219000816E0,1.623000026E0
2.553145012E1,2.416050196E0,-9.219000816E0,1.623000026E0
2.555145012E1,2.416050196E0,-9.219000816E0,1.623000026E0
2.557145012E1,2.416050196E0,-9.219000816E0,1.623000026E0
2.559145012E1,2.626050234E0,-9.717000008E0,1.374000072E0
2.561145012E1,2.626050234E0,-9.717000008E0,1.374000072E0
2.563145012E1,2.665050030E0,-9.487950325E0,9.139500260E-1
2.565145012E1,2.665050030E0,-9.487950325E0,9.139500260E-1
2.567145012E1,2.665050030E0,-9.487950325E0,9.139500260E-1
2.569145012E1,1.993950129E0,-9.487950325E0,8.190000653E-1
2.571145012E1,1.993950129E0,-9.487950325E0,8.190000653E-1
2.573145012E1,1.650000095E0,-9.258000374E0,1.489050031E0
2.575145012E1,1.650000095E0,-9.258000374E0,1.489050031E0
2.577145012E1,1.650000095E0,-9.258000374E0,1.489050031E0
2.579145012E1,2.416050196E0,-9.448950768E0,1.623000026E0
2.581145012E1,2.416050196E0,-9.448950768E0,1.623000026E0
2.583145012E1,2.338950157E0,-9.697950363E0,7.230000496E-1
2.585145012E1,2.338950157E0,-9.697950363E0,7.230000496E-1
2.587145012E1,2.205000162E0,-9.736050606E0,4.360500276E-1
2.589145012E1,2.205000162E0,-9.736050606E0,4.360500276E-1
2.591145012E1,2.205000162E0,-9.736050606E0,4.360500276E-1
2.593145012E1,2.473050117E0,-9.564000130E0,-1.380000114E-1
2.595145012E1,2.473050117E0,-9.564000130E0,-1.380000114E-1
2.597145012E1,2.397000074E0,-9.487950325E0,7.800000310E-1
2.599145012E1,2.397000074E0,-9.487950325E0,7.800000310E-1
2.601145012E1,2.397000074E0,-9.487950325E0,7.800000310E-1
2.603145012E1,2.167050123E0,-9.411000252E0,1.393050075E0
2.605145012E1,2.167050123E0,-9.411000252E0,1.393050075E0
2.607145012E1,2.032950163E0,-9.564000130E0,8.950500488E-1
2.609145012E1,2.032950163E0,-9.564000130E0,8.950500488E-1
2.611145012E1,2.185950041E0,-9.564000130E0,3.970500231E-1
2.613145012E1,2.185950041E0,-9.564000130E0,3.970500231E-1
2.615145012E1,2.185950041E0,-9.564000130E0,3.970500231E-1
2.617145012E1,2.320050001E0,-9.583050728E0,3.019500077E-1
2.619145012E1,2.320050001E0,-9.583050728E0,3.019500077E-1
2.621145012E1,1.936950088E0,-9.430050850E0,5.700000525E-1
2.623145012E1,1.936950088E0,-9.430050850E0,5.700000525E-1
2.625145012E1,1.936950088E0,-9.430050850E0,5.700000525E-1
2.627145012E1,2.416050196E0,-9.391950607E0,3.970500231E-1
2.629145012E1,2.416050196E0,-9.391950607E0,3.970500231E-1
2.631145012E1,2.722050190E0,-9.430050850E0,5.890500546E-1
2.633145012E1,2.722050190E0,-9.430050850E0,5.890500546E-1
2.635145012E1,2.224050045E0,-9.697950363E0,6.079500318E-1
2.637145012E1,2.224050045E0,-9.697950363E0,6.079500318E-1
2.639145012E1,2.224050045E0,-9.697950363E0,6.079500318E-1
2.641145012E1,1.554000020E0,-9.601950645E0,5.295000225E-2
2.643145012E1,1.554000020E0,-9.601950645E0,5.295000225E-2
2.645145012E1,2.530950069E0,-9.601950645E0,1.680000126E-1
2.647145012E1,2.530950069E0,-9.601950645E0,1.680000126E-1
2.649145012E1,2.914050102E0,-9.391950607E0,5.310000181E-1
2.651145012E1,2.893950224E0,-9.352950096E0,6.270000339E-1
2.653145012E1,2.893950224E0,-9.352950096E0,6.270000339E-1
2.655145012E1,2.242950201E0,-9.526050568E0,7.990500331E-1
2.657145012E1,2.242950201E0,-9.526050568E0,7.990500331E-1
2.659145012E1,2.242950201E0,-9.526050568E0,7.990500331E-1
2.661145012E1,2.242950201E0,-9.526050568E0,7.990500331E-1
2.663145012E1,2.242950201E0,-9.526050568E0,7.990500331E-1
2.665145012E1,2.224050045E0,-9.660000801E0,3.589500189E-1
2.667145012E1,2.224050045E0,-9.660000801E0,3.589500189E-1
2.669145012E1,1.993950129E0,-9.583050728E0,5.890500546E-1
2.671145012E1,1.993950129E0,-9.583050728E0,5.890500546E-1
2.673145012E1,1.993950129E0,-9.583050728E0,5.890500546E-1
2.675145012E1,1.803000093E0,-9.507000923E0,8.950500488E-1
2.677145012E1,1.803000093E0,-9.507000923E0,8.950500488E-1
2.679145012E1,1.860000134E0,-9.583050728E0,9.720000625E-1
2.681145012E1,1.860000134E0,-9.583050728E0,9.720000625E-1
2.683145012E1,1.860000134E0,-9.583050728E0,9.720000625E-1
2.685145012E1,2.014050007E0,-9.601950645E0,7.800000310E-1
2.687145012E1,2.014050007E0,-9.601950645E0,7.800000310E-1
2.689145012E1,2.089950085E0,-9.526050568E0,6.079500318E-1
2.691145012E1,2.089950085E0,-9.526050568E0,6.079500318E-1
2.693145012E1,2.205000162E0,-9.526050568E0,7.609500289E-1
2.695145012E1,2.205000162E0,-9.526050568E0,7.609500289E-1
2.697145012E1,2.205000162E0,-9.526050568E0,7.609500289E-1
2.699145012E1,2.109000206E0,-9.544950485E0,8.380500674E-1
2.701145012E1,2.109000206E0,-9.544950485E0,8.380500674E-1
2.703145012E1,2.052000046E0,-9.564000130E0,7.800000310E-1
2.705145012E1,2.052000046E0,-9.564000130E0,7.800000310E-1
2.707145012E1,2.052000046E0,-9.564000130E0,7.800000310E-1
2.709145012E1,2.052000046E0,-9.507000923E0,8.380500674E-1
2.711145012E1,2.052000046E0,-9.507000923E0,8.380500674E-1
2.713145012E1,1.936950088E0,-9.564000130E0,9.529500604E-1
2.715145012E1,1.936950088E0,-9.564000130E0,9.529500604E-1
2.717145012E1,1.744950056E0,-9.544950485E0,9.139500260E-1
2.719145012E1,1.744950056E0,-9.544950485E0,9.139500260E-1
2.721145012E1,1.744950056E0,-9.544950485E0,9.139500260E-1
2.723145012E1,1.860000134E0,-9.583050728E0,9.720000625E-1
2.725145012E1,1.860000134E0,-9.583050728E0,9.720000625E-1
2.727145012E1,2.032950163E0,-9.679050446E0,9.139500260E-1
2.729145012E1,2.032950163E0,-9.679050446E0,9.139500260E-1
2.731145012E1,1.993950129E0,-9.640950203E0,7.990500331E-1
2.733145012E1,1.975050092E0,-9.622050285E0,7.990500331E-1
2.735145012E1,1.975050092E0,-9.622050285E0,7.990500331E-1
2.737145012E1,1.993950129E0,-9.583050728E0,8.569500446E-1
2.739145012E1,1.993950129E0,-9.583050728E0,8.569500446E-1
2.741145012E1,1.993950129E0,-9.564000130E0,9.139500260E-1
2.743145012E1,1.993950129E0,-9.564000130E0,9.139500260E-1
2.745145012E1,1.993950129E0,-9.564000130E0,9.139500260E-1
2.747145012E1,2.014050007E0,-9.622050285E0,9.139500260E-1
2.749145012E1,2.014050007E0,-9.622050285E0,9.139500260E-1
2.751145012E1,2.014050007E0,-9.564000130E0,8.380500674E-1
2.753145012E1,2.014050007E0,-9.564000130E0,8.380500674E-1
2.755145012E1,2.014050007E0,-9.564000130E0,8.380500674E-1
2.757145012E1,1.993950129E0,-9.544950485E0,9.139500260E-1
2.759145012E1,1.993950129E0,-9.544950485E0,9.139500260E-1
2.761145012E1,1.936950088E0,-9.622050285E0,8.760000467E-1
2.763145012E1,1.936950088E0,-9.622050285E0,8.760000467E-1
2.765145012E1,1.993950129E0,-9.544950485E0,8.190000653E-1
2.767145012E1,1.993950129E0,-9.544950485E0,8.190000653E-1
2.769145012E1,1.993950129E0,-9.544950485E0,8.190000653E-1
2.771145012E1,2.032950163E0,-9.583050728E0,8.569500446E-1
2.773145012E1,2.032950163E0,-9.583050728E0,8.569500446E-1
2.775145012E1,1.975050092E0,-9.601950645E0,8.380500674E-1
2.777145012E1,1.975050092E0,-9.601950645E0,8.380500674E-1
2.779145012E1,1.975050092E0,-9.601950645E0,8.380500674E-1
2.781145012E1,1.993950129E0,-9.507000923E0,7.800000310E-1
2.783145012E1,1.993950129E0,-9.507000923E0,7.800000310E-1
2.785145012E1,2.052000046E0,-9.564000130E0,8.190000653E-1
2.787145012E1,2.052000046E0,-9.564000130E0,8.190000653E-1
2.789145012E1,1.993950129E0,-9.583050728E0,8.190000653E-1
2.791145012E1,1.993950129E0,-9.583050728E0,8.190000653E-1
2.793145012E1,1.993950129E0,-9.583050728E0,8.190000653E-1
2.795145012E1,1.993950129E0,-9.583050728E0,7.609500289E-1
2.797145012E1,1.993950129E0,-9.583050728E0,7.609500289E-1
2.799145012E1,2.014050007E0,-9.583050728E0,7.800000310E-1
2.801145012E1,2.014050007E0,-9.583050728E0,7.800000310E-1
2.803145012E1,2.014050007E0,-9.564000130E0,7.039500475E-1
2.805145012E1,2.032950163E0,-9.544950485E0,6.649500132E-1
2.807145012E1,2.032950163E0,-9.544950485E0,6.649500132E-1
2.809145012E1,2.167050123E0,-9.544950485E0,6.649500132E-1
2.811145012E1,2.167050123E0,-9.544950485E0,6.649500132E-1
2.813145012E1,2.167050123E0,-9.544950485E0,6.649500132E-1
2.815145012E1,2.167050123E0,-9.544950485E0,7.230000496E-1
2.817145012E1,2.167050123E0,-9.544950485E0,7.230000496E-1
2.819145012E1,2.148000002E0,-9.564000130E0,7.039500475E-1
2.821145012E1,2.148000002E0,-9.564000130E0,7.039500475E-1
2.823145012E1,2.089950085E0,-9.544950485E0,6.649500132E-1
2.825145012E1,2.089950085E0,-9.544950485E0,6.649500132E-1
2.827145012E1,2.089950085E0,-9.544950485E0,6.649500132E-1
2.829145012E1,2.167050123E0,-9.564000130E0,6.270000339E-1
2.831145012E1,2.167050123E0,-9.564000130E0,6.270000339E-1
2.833145012E1,2.205000162E0,-9.564000130E0,7.039500475E-1
2.835145012E1,2.205000162E0,-9.564000130E0,7.039500475E-1
2.837145012E1,2.224050045E0,-9.544950485E0,6.649500132E-1
2.839145012E1,2.205000162E0,-9.487950325E0,6.270000339E-1
2.841145012E1,2.205000162E0,-9.487950325E0,6.270000339E-1
2.843145012E1,2.205000162E0,-9.526050568E0,6.079500318E-1
2.845145012E1,2.205000162E0,-9.526050568E0,6.079500318E-1
2.847145012E1,2.205000162E0,-9.526050568E0,6.079500318E-1
2.849145012E1,2.205000162E0,-9.526050568E0,6.079500318E-1
2.851145012E1,2.205000162E0,-9.526050568E0,6.079500318E-1
2.853145012E1,2.148000002E0,-9.468000412E0,6.079500318E-1
2.855145012E1,2.148000002E0,-9.468000412E0,6.079500318E-1
2.857145012E1,2.089950085E0,-9.564000130E0,7.039500475E-1
2.859145012E1,2.089950085E0,-9.564000130E0,7.039500475E-1
2.861145012E1,2.089950085E0,-9.564000130E0,7.039500475E-1
2.863145012E1,2.052000046E0,-9.468000412E0,6.270000339E-1
2.865145012E1,2.052000046E0,-9.468000412E0,6.270000339E-1
2.867145012E1,2.167050123E0,-9.583050728E0,5.700000525E-1
2.869145012E1,2.167050123E0,-9.583050728E0,5.700000525E-1
2.871145012E1,2.128050089E0,-9.564000130E0,5.509500504E-1
2.871145012E1,2.128050089E0,-9.564000130E0,5.509500504E-1
2.875145012E1,2.128050089E0,-9.564000130E0,5.509500504E-1
2.877145012E1,2.052000046E0,-9.564000130E0,5.700000525E-1
2.879145012E1,2.052000046E0,-9.564000130E0,5.700000525E-1
2.881145012E1,2.052000046E0,-9.601950645E0,6.270000339E-1
2.883145012E1,2.052000046E0,-9.601950645E0,6.270000339E-1
2.885145012E1,2.052000046E0,-9.601950645E0,6.270000339E-1
2.887145012E1,2.032950163E0,-9.526050568E0,6.460500360E-1
2.889145012E1,2.032950163E0,-9.526050568E0,6.460500360E-1
2.891145012E1,2.109000206E0,-9.601950645E0,6.460500360E-1
2.893145012E1,2.109000206E0,-9.601950645E0,6.460500360E-1
2.895145012E1,2.109000206E0,-9.544950485E0,6.270000339E-1
2.897145012E1,2.109000206E0,-9.544950485E0,6.270000339E-1
2.899145012E1,2.109000206E0,-9.544950485E0,6.270000339E-1
2.901145012E1,2.071050167E0,-9.660000801E0,6.079500318E-1
2.903145012E1,2.071050167E0,-9.660000801E0,6.079500318E-1
2.905145012E1,1.993950129E0,-9.526050568E0,6.079500318E-1
2.907145012E1,1.993950129E0,-9.526050568E0,6.079500318E-1
2.909145012E1,1.993950129E0,-9.526050568E0,6.079500318E-1
2.911145012E1,2.032950163E0,-9.601950645E0,7.230000496E-1
2.913145012E1,2.032950163E0,-9.601950645E0,7.230000496E-1
2.915145012E1,1.975050092E0,-9.564000130E0,7.800000310E-1
2.917145012E1,1.975050092E0,-9.564000130E0,7.800000310E-1
2.919145012E1,1.975050092E0,-9.583050728E0,7.990500331E-1
2.921145012E1,1.975050092E0,-9.583050728E0,7.609500289E-1
2.923145012E1,1.975050092E0,-9.583050728E0,7.609500289E-1
2.925145012E1,1.899000049E0,-9.601950645E0,7.039500475E-1
2.927145012E1,1.899000049E0,-9.601950645E0,7.039500475E-1
2.929145012E1,1.860000134E0,-9.564000130E0,7.420500517E-1
2.931145012E1,1.860000134E0,-9.564000130E0,7.420500517E-1
2.933145012E1,1.860000134E0,-9.564000130E0,7.420500517E-1
2.935145012E1,1.899000049E0,-9.564000130E0,8.569500446E-1
2.937145012E1,1.899000049E0,-9.564000130E0,8.569500446E-1
2.939145012E1,1.993950129E0,-9.564000130E0,7.990500331E-1
2.941145012E1,1.993950129E0,-9.564000130E0,7.990500331E-1
2.943145012E1,1.993950129E0,-9.564000130E0,7.990500331E-1
2.945145012E1,2.014050007E0,-9.583050728E0,7.420500517E-1
2.947145012E1,2.014050007E0,-9.583050728E0,7.420500517E-1
2.949145012E1,1.918050051E0,-9.564000130E0,7.800000310E-1
2.951145012E1,1.918050051E0,-9.564000130E0,7.800000310E-1
2.953145012E1,1.936950088E0,-9.583050728E0,8.190000653E-1
2.955145012E1,1.936950088E0,-9.583050728E0,8.190000653E-1
2.957145012E1,1.936950088E0,-9.583050728E0,8.190000653E-1
2.959145012E1,1.918050051E0,-9.640950203E0,7.609500289E-1
2.961145012E1,1.918050051E0,-9.640950203E0,7.609500289E-1
2.963145012E1,1.840950131E0,-9.601950645E0,7.800000310E-1
2.965145012E1,1.840950131E0,-9.601950645E0,7.800000310E-1
2.967145012E1,1.840950131E0,-9.601950645E0,7.800000310E-1
2.969145012E1,1.860000134E0,-9.622050285E0,8.380500674E-1
2.971145012E1,1.860000134E0,-9.622050285E0,8.380500674E-1
2.973145012E1,1.879950047E0,-9.583050728E0,7.609500289E-1
2.975145012E1,1.879950047E0,-9.583050728E0,7.609500289E-1
2.977145012E1,1.860000134E0,-9.622050285E0,7.990500331E-1
2.979145012E1,1.860000134E0,-9.622050285E0,7.990500331E-1
2.981145012E1,1.860000134E0,-9.622050285E0,7.990500331E-1
2.983145012E1,1.899000049E0,-9.622050285E0,8.569500446E-1
2.985145012E1,1.899000049E0,-9.622050285E0,8.569500446E-1
2.987145012E1,1.899000049E0,-9.583050728E0,7.800000310E-1
2.989145012E1,1.899000049E0,-9.583050728E0,7.800000310E-1
2.991145012E1,1.860000134E0,-9.564000130E0,7.990500331E-1
2.993145012E1,1.860000134E0,-9.622050285E0,8.569500446E-1
2.995145012E1,1.860000134E0,-9.622050285E0,8.569500446E-1
2.997145012E1,1.860000134E0,-9.564000130E0,8.569500446E-1
2.999145012E1,1.860000134E0,-9.564000130E0,8.569500446E-1
3.001145012E1,1.860000134E0,-9.564000130E0,8.569500446E-1
3.003145012E1,1.860000134E0,-9.564000130E0,8.569500446E-1
3.005145012E1,1.860000134E0,-9.564000130E0,8.569500446E-1
3.007145012E1,1.879950047E0,-9.583050728E0,8.569500446E-1
3.009145012E1,1.879950047E0,-9.583050728E0,8.569500446E-1
3.011145012E1,1.956000090E0,-9.583050728E0,7.990500331E-1
3.013145012E1,1.956000090E0,-9.583050728E0,7.990500331E-1
3.015145012E1,1.956000090E0,-9.583050728E0,7.990500331E-1
3.017145012E1,2.052000046E0,-9.601950645E0,7.609500289E-1
3.019145012E1,2.052000046E0,-9.601950645E0,7.609500289E-1
3.021145012E1,1.993950129E0,-9.660000801E0,7.420500517E-1
3.023145012E1,1.993950129E0,-9.660000801E0,7.420500517E-1
3.025145012E1,1.899000049E0,-9.679050446E0,8.380500674E-1
3.027145012E1,1.860000134E0,-9.660000801E0,8.190000653E-1
3.029145012E1,1.860000134E0,-9.660000801E0,8.190000653E-1
3.031145012E1,1.840950131E0,-9.430050850E0,8.190000653E-1
3.033145012E1,1.840950131E0,-9.430050850E0,8.190000653E-1
3.035145012E1,1.956000090E0,-9.526050568E0,8.760000467E-1
3.037145012E1,1.956000090E0,-9.526050568E0,8.760000467E-1
3.039145012E1,1.956000090E0,-9.526050568E0,8.760000467E-1
3.041145012E1,1.860000134E0,-9.601950645E0,7.990500331E-1
3.043145012E1,1.860000134E0,-9.601950645E0,7.990500331E-1
3.045145012E1,1.879950047E0,-9.583050728E0,7.990500331E-1
3.047145012E1,1.879950047E0,-9.583050728E0,7.990500331E-1
3.049145012E1,1.936950088E0,-9.544950485E0,8.190000653E-1
3.051145012E1,1.936950088E0,-9.583050728E0,7.609500289E-1
3.053145012E1,1.936950088E0,-9.583050728E0,7.609500289E-1
3.055145012E1,1.956000090E0,-9.583050728E0,8.190000653E-1
3.057145012E1,1.956000090E0,-9.583050728E0,8.190000653E-1
3.059145012E1,1.956000090E0,-9.583050728E0,8.190000653E-1
3.061145012E1,1.956000090E0,-9.583050728E0,8.190000653E-1
3.063145012E1,1.956000090E0,-9.583050728E0,8.190000653E-1
3.065145012E1,1.879950047E0,-9.622050285E0,7.990500331E-1
3.067145012E1,1.879950047E0,-9.622050285E0,7.990500331E-1
3.069145012E1,1.744950056E0,-9.583050728E0,8.569500446E-1
3.071145012E1,1.744950056E0,-9.583050728E0,8.569500446E-1
3.073145012E1,1.744950056E0,-9.583050728E0,8.569500446E-1
3.075145012E1,1.993950129E0,-9.564000130E0,7.800000310E-1
3.077145012E1,1.993950129E0,-9.564000130E0,7.800000310E-1
3.079145012E1,2.109000206E0,-9.601950645E0,7.609500289E-1
3.081145012E1,2.109000206E0,-9.601950645E0,7.609500289E-1
3.083145012E1,2.089950085E0,-9.583050728E0,7.420500517E-1
3.085145012E1,2.089950085E0,-9.583050728E0,7.420500517E-1
3.087145012E1,2.089950085E0,-9.583050728E0,7.420500517E-1
3.089145012E1,2.014050007E0,-9.601950645E0,8.380500674E-1
3.091145012E1,2.014050007E0,-9.601950645E0,8.380500674E-1
3.093145012E1,2.014050007E0,-9.622050285E0,6.649500132E-1
3.095145012E1,2.014050007E0,-9.622050285E0,6.649500132E-1
3.097145012E1,2.014050007E0,-9.622050285E0,6.649500132E-1
3.099145012E1,1.975050092E0,-9.526050568E0,7.039500475E-1
3.101145012E1,1.975050092E0,-9.526050568E0,7.039500475E-1
3.103145012E1,1.840950131E0,-9.601950645E0,9.139500260E-1
3.105145012E1,1.840950131E0,-9.601950645E0,9.139500260E-1
3.107145012E1,1.840950131E0,-9.601950645E0,8.950500488E-1
3.109145012E1,1.840950131E0,-9.601950645E0,8.950500488E-1
3.111145012E1,1.840950131E0,-9.601950645E0,8.950500488E-1
3.113145012E1,2.089950085E0,-9.564000130E0,7.609500289E-1
3.115145012E1,2.089950085E0,-9.564000130E0,7.609500289E-1
3.117145012E1,1.899000049E0,-9.564000130E0,9.139500260E-1
3.119145012E1,1.899000049E0,-9.564000130E0,9.139500260E-1
3.121145012E1,1.899000049E0,-9.564000130E0,9.139500260E-1
3.123145012E1,1.918050051E0,-9.564000130E0,9.529500604E-1
3.125145012E1,1.918050051E0,-9.564000130E0,9.529500604E-1
3.127145012E1,2.052000046E0,-9.583050728E0,9.139500260E-1
3.129145012E1,2.052000046E0,-9.583050728E0,9.139500260E-1
3.131145012E1,1.956000090E0,-9.583050728E0,9.340500236E-1
3.133145012E1,1.918050051E0,-9.583050728E0,9.340500236E-1
3.135145012E1,1.918050051E0,-9.583050728E0,9.340500236E-1
3.137145012E1,1.899000049E0,-9.583050728E0,9.139500260E-1
3.139145012E1,1.899000049E0,-9.583050728E0,9.139500260E-1
3.141145012E1,1.918050051E0,-9.583050728E0,8.760000467E-1
3.143145012E1,1.918050051E0,-9.583050728E0,8.760000467E-1
3.145145012E1,1.918050051E0,-9.583050728E0,8.760000467E-1
3.147145012E1,1.936950088E0,-9.544950485E0,9.910500646E-1
3.149145012E1,1.936950088E0,-9.544950485E0,9.910500646E-1
3.151145012E1,1.879950047E0,-9.601950645E0,9.340500236E-1
3.153145012E1,1.879950047E0,-9.601950645E0,9.340500236E-1
3.155145012E1,1.918050051E0,-9.583050728E0,8.950500488E-1
3.157145012E1,1.918050051E0,-9.564000130E0,8.950500488E-1
3.159145012E1,1.918050051E0,-9.564000130E0,8.950500488E-1
3.161145012E1,1.975050092E0,-9.601950645E0,8.950500488E-1
3.163145012E1,1.975050092E0,-9.601950645E0,8.950500488E-1
3.165145012E1,2.052000046E0,-9.601950645E0,8.380500674E-1
3.167145012E1,2.052000046E0,-9.601950645E0,8.380500674E-1
3.169145012E1,2.052000046E0,-9.601950645E0,8.380500674E-1
3.171145012E1,1.899000049E0,-9.583050728E0,8.760000467E-1
3.173145012E1,1.899000049E0,-9.583050728E0,8.760000467E-1
3.175145012E1,1.899000049E0,-9.544950485E0,9.720000625E-1
3.177145012E1,1.899000049E0,-9.544950485E0,9.720000625E-1
3.179145012E1,1.899000049E0,-9.544950485E0,9.720000625E-1
3.181145012E1,1.918050051E0,-9.544950485E0,8.950500488E-1
3.183145012E1,1.918050051E0,-9.544950485E0,8.950500488E-1
3.185145012E1,1.975050092E0,-9.583050728E0,8.569500446E-1
3.187145012E1,1.975050092E0,-9.583050728E0,8.569500446E-1
3.189145012E1,1.975050092E0,-9.583050728E0,8.760000467E-1
3.191145012E1,1.975050092E0,-9.583050728E0,8.760000467E-1
3.193145012E1,1.975050092E0,-9.583050728E0,8.760000467E-1
3.195145012E1,1.936950088E0,-9.564000130E0,9.139500260E-1
3.197145012E1,1.936950088E0,-9.564000130E0,9.139500260E-1
3.199145012E1,1.879950047E0,-9.601950645E0,9.340500236E-1
3.201145012E1,1.879950047E0,-9.601950645E0,9.340500236E-1
3.203145012E1,1.879950047E0,-9.601950645E0,9.340500236E-1
3.205145012E1,1.956000090E0,-9.583050728E0,8.950500488E-1
3.207145012E1,1.956000090E0,-9.583050728E0,8.950500488E-1
3.209145012E1,2.052000046E0,-9.583050728E0,9.139500260E-1
3.211145012E1,2.052000046E0,-9.583050728E0,9.139500260E-1
3.213145012E1,2.014050007E0,-9.564000130E0,9.720000625E-1
3.213145012E1,2.014050007E0,-9.564000130E0,9.720000625E-1
3.217145012E1,2.014050007E0,-9.564000130E0,9.720000625E-1
3.219145012E1,1.918050051E0,-9.583050728E0,8.760000467E-1
3.221145012E1,1.918050051E0,-9.583050728E0,8.760000467E-1
3.223145012E1,1.956000090E0,-9.564000130E0,8.760000467E-1
3.225145012E1,1.956000090E0,-9.564000130E0,8.760000467E-1
3.227145012E1,1.956000090E0,-9.564000130E0,8.760000467E-1
3.229145012E1,2.089950085E0,-9.526050568E0,9.340500236E-1
3.231145012E1,2.089950085E0,-9.526050568E0,9.340500236E-1
3.233145012E1,2.148000002E0,-9.564000130E0,8.380500674E-1
3.235145012E1,2.148000002E0,-9.564000130E0,8.380500674E-1
3.237145012E1,1.993950129E0,-9.583050728E0,8.569500446E-1
3.239145012E1,1.993950129E0,-9.583050728E0,8.569500446E-1
3.241145012E1,1.993950129E0,-9.583050728E0,8.569500446E-1
3.243145012E1,1.879950047E0,-9.564000130E0,9.139500260E-1
3.245145012E1,1.879950047E0,-9.564000130E0,9.139500260E-1
3.247145012E1,1.879950047E0,-9.564000130E0,9.139500260E-1
3.249145012E1,1.879950047E0,-9.564000130E0,9.139500260E-1
3.251145012E1,1.879950047E0,-9.564000130E0,9.139500260E-1
3.253145012E1,1.993950129E0,-9.583050728E0,8.760000467E-1
3.255145012E1,1.993950129E0,-9.583050728E0,8.760000467E-1
3.257145012E1,1.899000049E0,-9.583050728E0,8.760000467E-1
3.259145012E1,1.899000049E0,-9.583050728E0,8.760000467E-1
3.261145012E1,1.840950131E0,-9.601950645E0,8.380500674E-1
3.263145012E1,1.840950131E0,-9.601950645E0,8.380500674E-1
3.265145012E1,1.840950131E0,-9.601950645E0,8.380500674E-1
3.267145012E1,1.975050092E0,-9.583050728E0,7.800000310E-1
3.269145012E1,1.975050092E0,-9.583050728E0,7.800000310E-1
3.271145012E1,2.032950163E0,-9.583050728E0,7.990500331E-1
3.273145012E1,2.032950163E0,-9.583050728E0,7.990500331E-1
3.275145012E1,2.014050007E0,-9.526050568E0,8.190000653E-1
3.277145012E1,1.975050092E0,-9.583050728E0,7.800000310E-1
3.279145012E1,1.975050092E0,-9.583050728E0,7.800000310E-1
3.281145012E1,1.918050051E0,-9.544950485E0,7.420500517E-1
3.283145012E1,1.918050051E0,-9.544950485E0,7.420500517E-1
3.285145012E1,1.918050051E0,-9.544950485E0,7.420500517E-1
3.287145012E1,1.975050092E0,-9.583050728E0,7.990500331E-1
3.289145012E1,1.975050092E0,-9.583050728E0,7.990500331E-1
3.291145012E1,2.052000046E0,-9.564000130E0,7.609500289E-1
3.293145012E1,2.052000046E0,-9.564000130E0,7.609500289E-1
3.295145012E1,2.071050167E0,-9.583050728E0,7.420500517E-1
3.297145012E1,2.071050167E0,-9.583050728E0,7.420500517E-1
3.299145012E1,2.071050167E0,-9.583050728E0,7.420500517E-1
3.301145012E1,1.993950129E0,-9.564000130E0,7.800000310E-1
3.303145012E1,1.993950129E0,-9.564000130E0,7.800000310E-1
3.305145012E1,1.975050092E0,-9.583050728E0,7.039500475E-1
3.307145012E1,1.975050092E0,-9.583050728E0,7.039500475E-1
3.309145012E1,1.975050092E0,-9.583050728E0,6.649500132E-1
3.311145012E1,2.014050007E0,-9.564000130E0,6.649500132E-1
3.313145012E1,2.014050007E0,-9.564000130E0,6.649500132E-1
3.315145012E1,2.089950085E0,-9.583050728E0,7.230000496E-1
3.317145012E1,2.089950085E0,-9.583050728E0,7.230000496E-1
3.319145012E1,2.089950085E0,-9.583050728E0,7.230000496E-1
3.321145012E1,2.089950085E0,-9.583050728E0,7.230000496E-1
3.323145012E1,2.089950085E0,-9.583050728E0,7.230000496E-1
3.325145012E1,2.032950163E0,-9.507000923E0,6.649500132E-1
3.327145012E1,2.032950163E0,-9.507000923E0,6.649500132E-1
3.329145012E1,1.956000090E0,-9.544950485E0,8.760000467E-1
3.331145012E1,1.956000090E0,-9.544950485E0,8.760000467E-1
3.333145012E1,1.956000090E0,-9.544950485E0,8.760000467E-1
3.335145012E1,2.109000206E0,-9.583050728E0,6.460500360E-1
3.337145012E1,2.109000206E0,-9.583050728E0,6.460500360E-1
3.339145012E1,2.071050167E0,-9.583050728E0,6.079500318E-1
3.341145012E1,2.071050167E0,-9.583050728E0,6.079500318E-1
3.343145012E1,2.052000046E0,-9.564000130E0,7.800000310E-1
3.345145012E1,2.052000046E0,-9.564000130E0,7.800000310E-1
3.347145012E1,2.052000046E0,-9.564000130E0,7.800000310E-1
3.349145012E1,2.052000046E0,-9.526050568E0,7.990500331E-1
3.351145012E1,2.052000046E0,-9.526050568E0,7.990500331E-1
3.353145012E1,2.032950163E0,-9.564000130E0,7.420500517E-1
3.355145012E1,2.032950163E0,-9.564000130E0,7.420500517E-1
3.357145012E1,2.032950163E0,-9.564000130E0,7.420500517E-1
3.359145012E1,2.052000046E0,-9.583050728E0,7.039500475E-1
3.361145012E1,2.052000046E0,-9.583050728E0,7.039500475E-1
3.363145012E1,2.128050089E0,-9.583050728E0,8.569500446E-1
3.365145012E1,2.128050089E0,-9.583050728E0,8.569500446E-1
3.367145012E1,2.089950085E0,-9.544950485E0,9.139500260E-1
3.369145012E1,2.071050167E0,-9.544950485E0,8.950500488E-1
3.371145012E1,2.071050167E0,-9.544950485E0,8.950500488E-1
3.373145012E1,1.956000090E0,-9.583050728E0,7.609500289E-1
3.375145012E1,1.956000090E0,-9.583050728E0,7.609500289E-1
3.377145012E1,1.956000090E0,-9.583050728E0,7.609500289E-1
3.379145012E1,1.956000090E0,-9.583050728E0,7.609500289E-1
3.381145012E1,2.014050007E0,-9.564000130E0,8.760000467E-1
3.383145012E1,2.014050007E0,-9.583050728E0,8.950500488E-1
3.385145012E1,2.014050007E0,-9.583050728E0,8.950500488E-1
3.387145012E1,2.014050007E0,-9.583050728E0,8.950500488E-1
3.389145012E1,2.014050007E0,-9.583050728E0,8.950500488E-1
3.391145012E1,2.014050007E0,-9.583050728E0,8.950500488E-1
3.393145012E1,2.014050007E0,-9.583050728E0,8.190000653E-1
3.395145012E1,2.014050007E0,-9.583050728E0,8.190000653E-1
3.397145012E1,1.975050092E0,-9.601950645E0,8.760000467E-1
3.399145012E1,1.975050092E0,-9.601950645E0,8.760000467E-1
3.401145012E1,1.993950129E0,-9.583050728E0,8.190000653E-1
3.403145012E1,1.993950129E0,-9.583050728E0,8.190000653E-1
3.405145012E1,1.993950129E0,-9.583050728E0,8.190000653E-1
3.407145012E1,1.918050051E0,-9.583050728E0,7.990500331E-1
3.409145012E1,1.918050051E0,-9.583050728E0,7.990500331E-1
3.411145012E1,1.993950129E0,-9.583050728E0,8.760000467E-1
3.413145012E1,1.993950129E0,-9.583050728E0,8.760000467E-1
3.415145012E1,2.071050167E0,-9.583050728E0,7.800000310E-1
3.417145012E1,2.089950085E0,-9.601950645E0,7.039500475E-1
3.419145012E1,2.089950085E0,-9.601950645E0,7.039500475E-1
3.421145012E1,1.956000090E0,-9.583050728E0,7.990500331E-1
3.423145012E1,1.956000090E0,-9.583050728E0,7.990500331E-1
3.425145012E1,1.956000090E0,-9.583050728E0,7.990500331E-1
3.427145012E1,1.956000090E0,-9.583050728E0,7.990500331E-1
3.429145012E1,1.956000090E0,-9.583050728E0,7.990500331E-1
3.431145012E1,2.089950085E0,-9.583050728E0,7.230000496E-1
3.433145012E1,2.089950085E0,-9.583050728E0,7.230000496E-1
3.435145012E1,1.936950088E0,-9.583050728E0,7.609500289E-1
3.437145012E1,1.936950088E0,-9.583050728E0,7.609500289E-1
3.439145012E1,1.936950088E0,-9.583050728E0,7.609500289E-1
3.441145012E1,2.014050007E0,-9.583050728E0,8.190000653E-1
3.443145012E1,2.014050007E0,-9.583050728E0,8.190000653E-1
3.445145012E1,2.071050167E0,-9.601950645E0,6.649500132E-1
3.447145012E1,2.071050167E0,-9.601950645E0,6.649500132E-1
3.449145012E1,1.975050092E0,-9.564000130E0,6.649500132E-1
3.451145012E1,1.975050092E0,-9.564000130E0,6.649500132E-1
3.453145012E1,1.975050092E0,-9.564000130E0,6.649500132E-1
3.455145012E1,1.918050051E0,-9.526050568E0,8.760000467E-1
3.457145012E1,1.918050051E0,-9.526050568E0,8.760000467E-1
3.459145012E1,1.993950129E0,-9.583050728E0,7.609500289E-1
3.461145012E1,1.993950129E0,-9.583050728E0,7.609500289E-1
3.463145012E1,1.993950129E0,-9.583050728E0,7.609500289E-1
3.465145012E1,2.014050007E0,-9.640950203E0,7.039500475E-1
3.467145012E1,2.014050007E0,-9.640950203E0,7.039500475E-1
3.469145012E1,1.936950088E0,-9.564000130E0,7.800000310E-1
3.471145012E1,1.936950088E0,-9.564000130E0,7.800000310E-1
3.473145012E1,2.052000046E0,-9.507000923E0,8.569500446E-1
3.475145012E1,2.167050123E0,-9.526050568E0,8.569500446E-1
3.477145012E1,2.167050123E0,-9.526050568E0,8.569500446E-1
3.479145012E1,2.262000084E0,-9.544950485E0,7.039500475E-1
3.481145012E1,2.262000084E0,-9.544950485E0,7.039500475E-1
3.483145012E1,2.128050089E0,-9.564000130E0,6.850500107E-1
3.485145012E1,2.128050089E0,-9.564000130E0,6.850500107E-1
3.487145012E1,1.975050092E0,-9.507000923E0,7.990500331E-1
3.489145012E1,1.975050092E0,-9.487950325E0,8.190000653E-1
3.491145012E1,1.975050092E0,-9.487950325E0,8.190000653E-1
3.493145012E1,2.148000002E0,-9.564000130E0,8.380500674E-1
3.495145012E1,2.148000002E0,-9.564000130E0,8.380500674E-1
3.497145012E1,2.148000002E0,-9.564000130E0,8.380500674E-1
3.499145012E1,2.167050123E0,-9.583050728E0,6.460500360E-1
3.501145012E1,2.167050123E0,-9.583050728E0,6.460500360E-1
3.503145012E1,2.014050007E0,-9.622050285E0,6.460500360E-1
3.505145012E1,2.014050007E0,-9.622050285E0,6.460500360E-1
3.507145012E1,2.014050007E0,-9.622050285E0,6.460500360E-1
3.509145012E1,2.014050007E0,-9.622050285E0,6.460500360E-1
3.511145012E1,2.014050007E0,-9.622050285E0,6.460500360E-1
3.513145012E1,2.032950163E0,-9.564000130E0,7.420500517E-1
3.515145012E1,2.032950163E0,-9.564000130E0,7.420500517E-1
3.517145012E1,2.014050007E0,-9.564000130E0,8.380500674E-1
3.519145012E1,2.014050007E0,-9.564000130E0,8.380500674E-1
3.521145012E1,2.052000046E0,-9.583050728E0,8.190000653E-1
3.523145012E1,2.071050167E0,-9.564000130E0,7.800000310E-1
3.525145012E1,2.071050167E0,-9.564000130E0,7.800000310E-1
3.527145012E1,2.089950085E0,-9.544950485E0,5.890500546E-1
3.529145012E1,2.089950085E0,-9.544950485E0,5.890500546E-1
3.531145012E1,2.089950085E0,-9.544950485E0,5.890500546E-1
3.533145012E1,2.089950085E0,-9.544950485E0,5.890500546E-1
3.535145012E1,2.089950085E0,-9.544950485E0,5.890500546E-1
3.537145012E1,2.128050089E0,-9.544950485E0,7.420500517E-1
3.539145012E1,2.128050089E0,-9.544950485E0,7.420500517E-1
3.541145012E1,2.089950085E0,-9.564000130E0,7.990500331E-1
3.543145012E1,2.089950085E0,-9.564000130E0,7.990500331E-1
3.545145012E1,2.089950085E0,-9.564000130E0,7.990500331E-1
3.547145012E1,1.993950129E0,-9.526050568E0,6.850500107E-1
3.549145012E1,1.993950129E0,-9.526050568E0,6.850500107E-1
3.551145012E1,2.014050007E0,-9.564000130E0,6.850500107E-1
3.553145012E1,2.014050007E0,-9.564000130E0,6.850500107E-1
3.555145012E1,2.032950163E0,-9.564000130E0,6.649500132E-1
3.557145012E1,2.032950163E0,-9.564000130E0,6.649500132E-1
3.559145012E1,2.032950163E0,-9.564000130E0,6.649500132E-1
3.561145012E1,2.128050089E0,-9.448950768E0,5.890500546E-1
3.563145012E1,2.128050089E0,-9.448950768E0,5.890500546E-1
3.565145012E1,2.338950157E0,-9.622050285E0,5.700000525E-1
3.567145012E1,2.338950157E0,-9.622050285E0,5.700000525E-1
3.569145012E1,2.338950157E0,-9.622050285E0,5.700000525E-1
3.571145012E1,2.397000074E0,-9.507000923E0,2.440500110E-1
3.573145012E1,2.397000074E0,-9.507000923E0,2.440500110E-1
3.575145012E1,2.205000162E0,-9.507000923E0,3.970500231E-1
3.577145012E1,2.205000162E0,-9.507000923E0,3.970500231E-1
3.579145012E1,2.205000162E0,-9.507000923E0,3.970500231E-1
3.581145012E1,2.128050089E0,-9.564000130E0,5.310000181E-1
3.583145012E1,2.128050089E0,-9.564000130E0,5.310000181E-1
3.585145012E1,2.109000206E0,-9.544950485E0,3.019500077E-1
3.587145012E1,2.109000206E0,-9.544950485E0,3.019500077E-1
3.589145012E1,2.052000046E0,-9.564000130E0,3.400500119E-1
3.591145012E1,2.052000046E0,-9.564000130E0,3.400500119E-1
3.593145012E1,1.936950088E0,-9.640950203E0,4.930500090E-1
3.595145012E1,1.918050051E0,-9.507000923E0,4.930500090E-1
3.597145012E1,1.918050051E0,-9.507000923E0,4.930500090E-1
3.599145012E1,2.032950163E0,-9.544950485E0,4.740000367E-1
3.601145012E1,2.032950163E0,-9.544950485E0,4.740000367E-1
3.603145012E1,2.032950163E0,-9.544950485E0,4.740000367E-1
3.605145012E1,2.301000118E0,-9.622050285E0,3.210000098E-1
3.607145012E1,2.301000118E0,-9.622050285E0,3.210000098E-1
3.609145012E1,2.128050089E0,-9.564000130E0,4.360500276E-1
3.611145012E1,2.128050089E0,-9.564000130E0,4.360500276E-1
3.613145012E1,2.128050089E0,-9.564000130E0,4.360500276E-1
3.615145012E1,2.128050089E0,-9.564000130E0,4.360500276E-1
3.617145012E1,2.128050089E0,-9.564000130E0,4.360500276E-1
3.619145012E1,1.918050051E0,-9.583050728E0,4.159500301E-1
3.621145012E1,1.918050051E0,-9.583050728E0,4.159500301E-1
3.623145012E1,1.918050051E0,-9.564000130E0,4.740000367E-1
3.625145012E1,1.918050051E0,-9.564000130E0,4.740000367E-1
3.627145012E1,1.956000090E0,-9.583050728E0,5.509500504E-1
3.629145012E1,1.993950129E0,-9.583050728E0,5.700000525E-1
3.631145012E1,1.993950129E0,-9.583050728E0,5.700000525E-1
3.633145012E1,2.014050007E0,-9.544950485E0,4.360500276E-1
3.635145012E1,2.014050007E0,-9.544950485E0,4.360500276E-1
3.637145012E1,2.014050007E0,-9.544950485E0,4.360500276E-1
3.639145012E1,2.014050007E0,-9.544950485E0,4.360500276E-1
3.641145012E1,2.014050007E0,-9.544950485E0,4.360500276E-1
3.643145012E1,1.879950047E0,-9.544950485E0,7.420500517E-1
3.645145012E1,1.879950047E0,-9.544950485E0,7.420500517E-1
3.647145012E1,1.783950090E0,-9.640950203E0,8.190000653E-1
3.649145012E1,1.783950090E0,-9.640950203E0,8.190000653E-1
3.651145012E1,1.783950090E0,-9.640950203E0,8.190000653E-1
3.653145012E1,1.879950047E0,-9.622050285E0,5.119500160E-1
3.655145012E1,1.879950047E0,-9.622050285E0,5.119500160E-1
3.657145012E1,2.109000206E0,-9.660000801E0,5.890500546E-1
3.659145012E1,2.109000206E0,-9.660000801E0,5.890500546E-1
3.661145012E1,1.822050095E0,-9.679050446E0,5.700000525E-1
3.663145012E1,1.822050095E0,-9.679050446E0,5.700000525E-1
3.665145012E1,1.822050095E0,-9.679050446E0,5.700000525E-1
3.667145012E1,1.744950056E0,-9.601950645E0,5.509500504E-1
3.669145012E1,1.744950056E0,-9.601950645E0,5.509500504E-1
3.671145012E1,2.185950041E0,-9.583050728E0,7.230000496E-1
3.673145012E1,2.185950041E0,-9.583050728E0,7.230000496E-1
3.675145012E1,2.185950041E0,-9.583050728E0,7.230000496E-1
3.677145012E1,2.550000191E0,-9.468000412E0,8.760000467E-1
3.679145012E1,2.550000191E0,-9.468000412E0,8.760000467E-1
3.681145012E1,1.993950129E0,-9.544950485E0,7.800000310E-1
3.683145012E1,1.993950129E0,-9.544950485E0,7.800000310E-1
3.685145012E1,1.993950129E0,-9.544950485E0,7.800000310E-1
3.687145012E1,1.993950129E0,-9.544950485E0,7.800000310E-1
3.689145012E1,1.993950129E0,-9.544950485E0,7.800000310E-1
3.691145012E1,1.899000049E0,-9.583050728E0,5.310000181E-1
3.693145012E1,1.899000049E0,-9.583050728E0,5.310000181E-1
3.695145012E1,2.242950201E0,-9.564000130E0,6.850500107E-1
3.697145012E1,2.242950201E0,-9.564000130E0,6.850500107E-1
3.699145012E1,2.185950041E0,-9.507000923E0,8.569500446E-1
3.701145012E1,2.148000002E0,-9.526050568E0,8.760000467E-1
3.703145012E1,2.148000002E0,-9.526050568E0,8.760000467E-1
3.705145012E1,1.993950129E0,-9.564000130E0,7.420500517E-1
3.707145012E1,1.993950129E0,-9.564000130E0,7.420500517E-1
3.709145012E1,1.993950129E0,-9.564000130E0,7.420500517E-1
3.711145012E1,2.032950163E0,-9.622050285E0,5.700000525E-1
3.713145012E1,2.032950163E0,-9.622050285E0,5.700000525E-1
3.715145012E1,1.975050092E0,-9.526050568E0,6.850500107E-1
3.717145012E1,1.975050092E0,-9.526050568E0,6.850500107E-1
3.719145012E1,2.014050007E0,-9.583050728E0,8.760000467E-1
3.721145012E1,2.014050007E0,-9.583050728E0,8.760000467E-1
3.723145012E1,2.014050007E0,-9.583050728E0,8.760000467E-1
3.725145012E1,2.052000046E0,-9.526050568E0,7.420500517E-1
3.727145012E1,2.052000046E0,-9.526050568E0,7.420500517E-1
3.729145012E1,1.860000134E0,-9.601950645E0,6.079500318E-1
3.731145012E1,1.860000134E0,-9.601950645E0,6.079500318E-1
3.733145012E1,1.860000134E0,-9.544950485E0,6.460500360E-1
3.735145012E1,1.899000049E0,-9.640950203E0,6.460500360E-1
3.737145012E1,1.899000049E0,-9.640950203E0,6.460500360E-1
3.739145012E1,2.032950163E0,-9.601950645E0,4.930500090E-1
3.741145012E1,2.032950163E0,-9.601950645E0,4.930500090E-1
3.743145012E1,2.032950163E0,-9.601950645E0,4.930500090E-1
3.745145012E1,2.032950163E0,-9.601950645E0,4.930500090E-1
3.747145012E1,2.032950163E0,-9.601950645E0,4.930500090E-1
3.749145012E1,2.014050007E0,-9.507000923E0,8.760000467E-1
3.751145012E1,2.014050007E0,-9.507000923E0,8.760000467E-1
3.753145012E1,1.936950088E0,-9.583050728E0,6.079500318E-1
3.755145012E1,1.936950088E0,-9.583050728E0,6.079500318E-1
3.757145012E1,1.936950088E0,-9.583050728E0,6.079500318E-1
3.759145012E1,2.052000046E0,-9.526050568E0,6.460500360E-1
3.761145012E1,2.052000046E0,-9.526050568E0,6.460500360E-1
3.763145012E1,1.975050092E0,-9.601950645E0,6.460500360E-1
3.765145012E1,1.975050092E0,-9.601950645E0,6.460500360E-1
3.767145012E1,1.975050092E0,-9.601950645E0,6.460500360E-1
3.769145012E1,1.975050092E0,-9.601950645E0,6.460500360E-1
3.771145012E1,1.975050092E0,-9.601950645E0,6.460500360E-1
3.773145012E1,1.993950129E0,-9.564000130E0,7.990500331E-1
3.775145012E1,1.993950129E0,-9.564000130E0,7.990500331E-1
3.777145012E1,1.975050092E0,-9.601950645E0,6.850500107E-1
3.779145012E1,1.975050092E0,-9.601950645E0,6.850500107E-1
3.781145012E1,1.975050092E0,-9.601950645E0,6.850500107E-1
3.783145012E1,1.956000090E0,-9.583050728E0,7.230000496E-1
3.785145012E1,1.956000090E0,-9.583050728E0,7.230000496E-1
3.787145012E1,1.975050092E0,-9.583050728E0,7.990500331E-1
3.789145012E1,1.975050092E0,-9.583050728E0,7.990500331E-1
3.791145012E1,1.918050051E0,-9.544950485E0,8.950500488E-1
3.793145012E1,1.918050051E0,-9.544950485E0,8.950500488E-1
3.795145012E1,1.918050051E0,-9.544950485E0,8.950500488E-1
3.797145012E1,1.936950088E0,-9.583050728E0,8.190000653E-1
3.799145012E1,1.936950088E0,-9.583050728E0,8.190000653E-1
3.801145012E1,1.918050051E0,-9.601950645E0,7.609500289E-1
3.803145012E1,1.918050051E0,-9.601950645E0,7.609500289E-1
3.805145012E1,1.918050051E0,-9.601950645E0,7.609500289E-1
3.807145012E1,1.936950088E0,-9.601950645E0,6.649500132E-1
3.809145012E1,1.936950088E0,-9.601950645E0,6.649500132E-1
3.811145012E1,1.879950047E0,-9.583050728E0,7.609500289E-1
3.813145012E1,1.879950047E0,-9.583050728E0,7.609500289E-1
3.815145012E1,1.879950047E0,-9.583050728E0,7.609500289E-1
3.817145012E1,1.803000093E0,-9.601950645E0,8.380500674E-1
3.819145012E1,1.803000093E0,-9.601950645E0,8.380500674E-1
3.821145012E1,1.936950088E0,-9.601950645E0,7.420500517E-1
3.823145012E1,1.936950088E0,-9.601950645E0,7.420500517E-1
3.825145012E1,1.936950088E0,-9.601950645E0,7.609500289E-1
3.827145012E1,1.936950088E0,-9.601950645E0,7.609500289E-1
3.829145012E1,1.936950088E0,-9.601950645E0,7.609500289E-1
3.831145012E1,1.822050095E0,-9.622050285E0,8.380500674E-1
3.833145012E1,1.822050095E0,-9.622050285E0,8.380500674E-1
3.835145012E1,1.879950047E0,-9.601950645E0,7.230000496E-1
3.837145012E1,1.879950047E0,-9.601950645E0,7.230000496E-1
3.839145012E1,1.879950047E0,-9.601950645E0,7.230000496E-1
3.841145012E1,1.918050051E0,-9.601950645E0,7.609500289E-1
3.843145012E1,1.918050051E0,-9.601950645E0,7.609500289E-1
3.845145012E1,1.879950047E0,-9.601950645E0,8.380500674E-1
3.847145012E1,1.879950047E0,-9.601950645E0,8.380500674E-1
3.849145012E1,1.899000049E0,-9.583050728E0,8.380500674E-1
3.849145012E1,1.899000049E0,-9.583050728E0,8.380500674E-1
3.853145012E1,1.899000049E0,-9.583050728E0,8.380500674E-1
3.855145012E1,1.918050051E0,-9.564000130E0,7.990500331E-1
3.857145012E1,1.918050051E0,-9.564000130E0,7.990500331E-1
3.859145012E1,1.918050051E0,-9.544950485E0,8.190000653E-1
3.861145012E1,1.918050051E0,-9.544950485E0,8.190000653E-1
3.863145012E1,1.918050051E0,-9.544950485E0,8.190000653E-1
3.865145012E1,1.918050051E0,-9.622050285E0,8.380500674E-1
3.867145012E1,1.918050051E0,-9.622050285E0,8.380500674E-1
3.869145012E1,1.860000134E0,-9.601950645E0,7.800000310E-1
3.871145012E1,1.860000134E0,-9.601950645E0,7.800000310E-1
3.873145012E1,1.840950131E0,-9.622050285E0,8.190000653E-1
3.875145012E1,1.840950131E0,-9.622050285E0,8.190000653E-1
3.877145012E1,1.840950131E0,-9.622050285E0,8.190000653E-1
3.879145012E1,1.918050051E0,-9.564000130E0,8.569500446E-1
3.881145012E1,1.918050051E0,-9.564000130E0,8.569500446E-1
3.883145012E1,1.956000090E0,-9.564000130E0,8.380500674E-1
3.885145012E1,1.956000090E0,-9.564000130E0,8.380500674E-1
3.887145012E1,1.956000090E0,-9.564000130E0,8.380500674E-1
3.889145012E1,1.899000049E0,-9.601950645E0,8.380500674E-1
3.891145012E1,1.899000049E0,-9.601950645E0,8.380500674E-1
3.893145012E1,1.899000049E0,-9.583050728E0,8.190000653E-1
3.895145012E1,1.899000049E0,-9.583050728E0,8.190000653E-1
3.897145012E1,1.936950088E0,-9.583050728E0,8.190000653E-1
3.899145012E1,1.936950088E0,-9.583050728E0,8.190000653E-1
3.901145012E1,1.936950088E0,-9.583050728E0,8.190000653E-1
3.903145012E1,1.975050092E0,-9.564000130E0,8.190000653E-1
3.905145012E1,1.975050092E0,-9.564000130E0,8.190000653E-1
3.907145012E1,1.975050092E0,-9.564000130E0,8.950500488E-1
3.909145012E1,1.975050092E0,-9.564000130E0,8.950500488E-1
3.911145012E1,1.975050092E0,-9.564000130E0,8.950500488E-1
3.913145012E1,2.032950163E0,-9.583050728E0,7.609500289E-1
3.915145012E1,2.032950163E0,-9.583050728E0,7.609500289E-1
3.917145012E1,1.993950129E0,-9.583050728E0,7.420500517E-1
3.919145012E1,1.993950129E0,-9.583050728E0,7.420500517E-1
3.921145012E1,1.993950129E0,-9.583050728E0,7.420500517E-1
3.923145012E1,1.879950047E0,-9.583050728E0,7.990500331E-1
3.925145012E1,1.879950047E0,-9.583050728E0,7.990500331E-1
3.927145012E1,1.956000090E0,-9.526050568E0,8.760000467E-1
3.929145012E1,1.956000090E0,-9.526050568E0,8.760000467E-1
3.931145012E1,2.071050167E0,-9.564000130E0,8.190000653E-1
3.933145012E1,2.071050167E0,-9.564000130E0,8.190000653E-1
3.935145012E1,2.071050167E0,-9.564000130E0,8.190000653E-1
3.937145012E1,2.032950163E0,-9.583050728E0,6.850500107E-1
3.939145012E1,2.032950163E0,-9.583050728E0,6.850500107E-1
3.941145012E1,1.936950088E0,-9.583050728E0,7.990500331E-1
3.943145012E1,1.936950088E0,-9.583050728E0,7.990500331E-1
3.945145012E1,1.956000090E0,-9.601950645E0,8.190000653E-1
3.947145012E1,1.956000090E0,-9.544950485E0,7.990500331E-1
3.949145012E1,1.956000090E0,-9.544950485E0,7.990500331E-1
3.951145012E1,1.993950129E0,-9.564000130E0,7.800000310E-1
3.953145012E1,1.993950129E0,-9.564000130E0,7.800000310E-1
3.955145012E1,1.993950129E0,-9.564000130E0,7.800000310E-1
3.957145012E1,1.993950129E0,-9.564000130E0,7.800000310E-1
3.959145012E1,1.993950129E0,-9.564000130E0,7.800000310E-1
3.961145012E1,2.052000046E0,-9.583050728E0,8.190000653E-1
3.963145012E1,2.052000046E0,-9.583050728E0,8.190000653E-1
3.965145012E1,1.956000090E0,-9.544950485E0,7.990500331E-1
3.967145012E1,1.956000090E0,-9.544950485E0,7.990500331E-1
3.969145012E1,2.014050007E0,-9.564000130E0,7.990500331E-1
3.971145012E1,2.014050007E0,-9.564000130E0,8.190000653E-1
3.973145012E1,2.014050007E0,-9.564000130E0,8.190000653E-1
3.975145012E1,1.993950129E0,-9.583050728E0,7.609500289E-1
3.977145012E1,1.993950129E0,-9.583050728E0,7.609500289E-1
3.979145012E1,2.014050007E0,-9.564000130E0,7.800000310E-1
3.981145012E1,2.014050007E0,-9.564000130E0,7.800000310E-1
3.983145012E1,2.014050007E0,-9.564000130E0,7.800000310E-1
3.985145012E1,1.993950129E0,-9.583050728E0,7.609500289E-1
3.987145012E1,1.993950129E0,-9.583050728E0,7.609500289E-1
3.989145012E1,1.993950129E0,-9.583050728E0,7.609500289E-1
3.991145012E1,1.993950129E0,-9.583050728E0,7.609500289E-1
3.993145012E1,1.993950129E0,-9.583050728E0,7.609500289E-1
3.995145012E1,1.975050092E0,-9.507000923E0,7.609500289E-1
3.997145012E1,1.975050092E0,-9.507000923E0,7.609500289E-1
3.999145012E1,2.052000046E0,-9.544950485E0,7.420500517E-1
4.001145012E1,2.052000046E0,-9.544950485E0,7.420500517E-1
4.003145012E1,2.032950163E0,-9.583050728E0,7.230000496E-1
4.005145012E1,2.032950163E0,-9.583050728E0,7.230000496E-1
4.007145012E1,2.032950163E0,-9.583050728E0,7.230000496E-1
4.009145012E1,1.993950129E0,-9.544950485E0,7.609500289E-1
4.011145012E1,1.993950129E0,-9.544950485E0,7.609500289E-1
4.013145012E1,1.975050092E0,-9.564000130E0,7.990500331E-1
4.015145012E1,1.975050092E0,-9.564000130E0,7.990500331E-1
4.017145012E1,1.975050092E0,-9.564000130E0,7.990500331E-1
4.019145012E1,2.032950163E0,-9.544950485E0,7.420500517E-1
4.021145012E1,2.032950163E0,-9.544950485E0,7.420500517E-1
4.023145012E1,2.032950163E0,-9.583050728E0,7.420500517E-1
4.025145012E1,2.032950163E0,-9.583050728E0,7.420500517E-1
4.027145012E1,2.032950163E0,-9.583050728E0,7.420500517E-1
4.029145012E1,2.014050007E0,-9.564000130E0,7.609500289E-1
4.031145012E1,2.014050007E0,-9.564000130E0,7.609500289E-1
4.033145012E1,2.014050007E0,-9.564000130E0,7.800000310E-1
4.035145012E1,2.014050007E0,-9.564000130E0,7.800000310E-1
4.037145012E1,2.032950163E0,-9.564000130E0,8.190000653E-1
4.039145012E1,2.032950163E0,-9.564000130E0,8.190000653E-1
4.041145012E1,2.032950163E0,-9.564000130E0,8.190000653E-1
4.043145012E1,2.014050007E0,-9.583050728E0,7.230000496E-1
4.045145012E1,2.014050007E0,-9.583050728E0,7.230000496E-1
4.047145012E1,2.014050007E0,-9.583050728E0,7.609500289E-1
4.049145012E1,2.014050007E0,-9.583050728E0,7.609500289E-1
4.051145012E1,1.936950088E0,-9.564000130E0,8.569500446E-1
4.053145012E1,1.879950047E0,-9.564000130E0,8.380500674E-1
4.055145012E1,1.879950047E0,-9.564000130E0,8.380500674E-1
4.057145012E1,1.918050051E0,-9.601950645E0,7.990500331E-1
4.059145012E1,1.918050051E0,-9.601950645E0,7.990500331E-1
4.061145012E1,1.918050051E0,-9.601950645E0,7.990500331E-1
4.063145012E1,1.918050051E0,-9.601950645E0,7.990500331E-1
4.065145012E1,1.918050051E0,-9.601950645E0,7.990500331E-1
4.067145012E1,1.993950129E0,-9.583050728E0,8.569500446E-1
4.069145012E1,1.993950129E0,-9.583050728E0,8.569500446E-1
4.071145012E1,1.993950129E0,-9.601950645E0,7.609500289E-1
4.073145012E1,1.993950129E0,-9.601950645E0,7.609500289E-1
4.075145012E1,2.032950163E0,-9.564000130E0,7.800000310E-1
4.077145012E1,2.052000046E0,-9.601950645E0,7.609500289E-1
4.079145012E1,2.052000046E0,-9.601950645E0,7.609500289E-1
4.081145012E1,2.032950163E0,-9.544950485E0,8.190000653E-1
4.083145012E1,2.032950163E0,-9.544950485E0,8.190000653E-1
4.085145012E1,2.032950163E0,-9.544950485E0,7.990500331E-1
4.087145012E1,2.032950163E0,-9.544950485E0,7.990500331E-1
4.089145012E1,2.032950163E0,-9.544950485E0,7.990500331E-1
4.091145012E1,2.052000046E0,-9.583050728E0,7.420500517E-1
4.093145012E1,2.052000046E0,-9.583050728E0,7.420500517E-1
4.095145012E1,2.071050167E0,-9.564000130E0,7.420500517E-1
4.097145012E1,2.071050167E0,-9.564000130E0,7.420500517E-1
4.099145012E1,2.071050167E0,-9.564000130E0,7.420500517E-1
4.101145012E1,2.089950085E0,-9.544950485E0,7.420500517E-1
4.103145012E1,2.089950085E0,-9.544950485E0,7.420500517E-1
4.105145012E1,2.128050089E0,-9.564000130E0,7.420500517E-1
4.107145012E1,2.128050089E0,-9.564000130E0,7.420500517E-1
4.109145012E1,2.089950085E0,-9.564000130E0,7.230000496E-1
4.111145012E1,2.089950085E0,-9.564000130E0,7.230000496E-1
4.113145012E1,2.089950085E0,-9.564000130E0,7.230000496E-1
4.115145012E1,2.032950163E0,-9.583050728E0,8.190000653E-1
4.117145012E1,2.032950163E0,-9.583050728E0,8.190000653E-1
4.119145012E1,2.089950085E0,-9.564000130E0,6.460500360E-1
4.121145012E1,2.089950085E0,-9.564000130E0,6.460500360E-1
4.123145012E1,2.071050167E0,-9.564000130E0,6.850500107E-1
4.125145012E1,2.032950163E0,-9.564000130E0,7.420500517E-1
4.127145012E1,2.032950163E0,-9.564000130E0,7.420500517E-1
4.129145012E1,1.956000090E0,-9.507000923E0,8.760000467E-1
