"Time (s)","Gyroscope x (rad/s)","Gyroscope y (rad/s)","Gyroscope z (rad/s)"
3.545012200E-2,-1.237499993E-3,-4.124999978E-3,-2.158750035E-2
5.145012400E-2,-1.237499993E-3,-4.124999978E-3,-2.158750035E-2
7.145012400E-2,0.000000000E0,0.000000000E0,0.000000000E0
9.145012400E-2,-8.648750186E-2,7.570750117E-1,-3.367374837E-1
1.114501240E-1,-8.648750186E-2,7.570750117E-1,-3.367374837E-1
1.314501240E-1,-8.648750186E-2,7.570750117E-1,-3.367374837E-1
1.514501240E-1,-9.968750179E-2,7.612000108E-1,-1.703625023E-1
1.714501240E-1,-9.968750179E-2,7.612000108E-1,-1.703625023E-1
1.914501240E-1,-1.564749926E-1,5.061374903E-1,-1.652749926E-1
2.114501240E-1,-1.564749926E-1,5.061374903E-1,-1.652749926E-1
2.314501240E-1,-1.564749926E-1,5.061374903E-1,-1.652749926E-1
2.514501240E-1,-1.575749964E-1,2.560249865E-1,-5.981250107E-2
2.714501240E-1,-1.575749964E-1,2.560249865E-1,-5.981250107E-2
2.914501240E-1,-1.575749964E-1,2.560249865E-1,-5.981250107E-2
3.114501240E-1,-1.575749964E-1,2.560249865E-1,-5.981250107E-2
3.314501240E-1,-1.575749964E-1,2.560249865E-1,-5.981250107E-2
3.514501240E-1,-3.782624900E-1,-5.031124949E-1,1.691250056E-1
3.714501240E-1,-3.782624900E-1,-5.031124949E-1,1.691250056E-1
3.914501240E-1,-3.845874965E-1,-8.328375220E-1,3.401750028E-1
4.114501240E-1,-3.845874965E-1,-8.328375220E-1,3.401750028E-1
4.314501240E-1,-4.413749874E-1,-1.067687511E0,4.299624860E-1
4.514501240E-1,-4.413749874E-1,-1.067687511E0,4.299624860E-1
4.714501240E-1,-4.413749874E-1,-1.067687511E0,4.299624860E-1
4.914501240E-1,-4.859249890E-1,-1.115124941E0,4.329875112E-1
5.114501240E-1,-4.859249890E-1,-1.115124941E0,4.329875112E-1
5.314501240E-1,-3.213374913E-1,-1.083362460E0,5.348749757E-1
5.514501240E-1,-3.213374913E-1,-1.083362460E0,5.348749757E-1
5.714501240E-1,-3.268375099E-1,-1.549899936E0,5.732374787E-1
5.914501240E-1,-3.268375099E-1,-1.549899936E0,5.732374787E-1
6.114501240E-1,-3.268375099E-1,-1.549899936E0,5.732374787E-1
6.314501240E-1,-2.563000023E-1,-1.494349957E0,6.444625258E-1
6.514501240E-1,-2.563000023E-1,-1.494349957E0,6.444625258E-1
6.714501240E-1,-2.563000023E-1,-1.494349957E0,6.444625258E-1
6.914501240E-1,-3.196874857E-1,-1.442237496E0,6.954749823E-1
7.114501240E-1,-3.196874857E-1,-1.442237496E0,6.954749823E-1
7.314501240E-1,-3.900874853E-1,-1.468775034E0,7.412624955E-1
7.514501240E-1,-3.900874853E-1,-1.468775034E0,7.412624955E-1
7.714501240E-1,-3.900874853E-1,-1.468775034E0,7.412624955E-1
7.914501240E-1,-3.900874853E-1,-1.468775034E0,7.412624955E-1
8.114501240E-1,-3.900874853E-1,-1.468775034E0,7.412624955E-1
8.314501240E-1,-1.041012526E0,-1.318487525E0,1.108662486E0
8.514501240E-1,-1.041012526E0,-1.318487525E0,1.108662486E0
8.714501240E-1,-1.162287474E0,-1.760137439E0,1.516350031E0
8.914501240E-1,-1.162287474E0,-1.760137439E0,1.516350031E0
9.114501240E-1,-4.346374869E-1,-2.650312424E0,1.965837479E0
9.314501240E-1,-4.346374869E-1,-2.650312424E0,1.965837479E0
9.514501240E-1,-4.346374869E-1,-2.650312424E0,1.965837479E0
9.714501240E-1,7.793499827E-1,-3.037374973E0,2.123549938E0
9.914501240E-1,7.793499827E-1,-3.037374973E0,2.123549938E0
1.011450124E0,7.793499827E-1,-3.037374973E0,2.123549938E0
1.031450124E0,7.793499827E-1,-3.037374973E0,2.123549938E0
1.051450124E0,7.793499827E-1,-3.037374973E0,2.123549938E0
1.071450124E0,2.286487579E0,-3.104337454E0,1.496000051E0
1.091450124E0,2.286487579E0,-3.104337454E0,1.496000051E0
1.111450124E0,2.739274979E0,-3.326537371E0,8.182625175E-1
1.131450124E0,2.739274979E0,-3.326537371E0,8.182625175E-1
1.151450124E0,2.739274979E0,-3.326537371E0,8.182625175E-1
1.171450124E0,2.481874943E0,-2.218837500E0,2.866874933E-1
1.191450124E0,2.481874943E0,-2.218837500E0,2.866874933E-1
1.211450124E0,1.998700023E0,-1.667737484E0,8.758749813E-2
1.231450124E0,1.998700023E0,-1.667737484E0,8.758749813E-2
1.251450124E0,1.364137530E0,-1.256062508E0,3.720749915E-1
1.271450124E0,1.364137530E0,-1.256062508E0,3.720749915E-1
1.291450124E0,1.364137530E0,-1.256062508E0,3.720749915E-1
1.311450124E0,9.402250051E-1,-8.185374737E-1,4.817999899E-1
1.331450124E0,9.402250051E-1,-8.185374737E-1,4.817999899E-1
1.351450124E0,2.655124962E-1,4.336749911E-1,7.103250027E-1
1.371450124E0,2.655124962E-1,4.336749911E-1,7.103250027E-1
1.391450124E0,1.216875017E-1,3.392125070E-1,8.725749850E-1
1.411450124E0,1.216875017E-1,3.392125070E-1,8.725749850E-1
1.431450124E0,1.216875017E-1,3.392125070E-1,8.725749850E-1
1.451450124E0,3.338499963E-1,-1.094499975E-1,7.495124936E-1
1.471450124E0,3.338499963E-1,-1.094499975E-1,7.495124936E-1
1.491450124E0,3.338499963E-1,-1.094499975E-1,7.495124936E-1
1.511450124E0,6.663249731E-1,-6.062374711E-1,4.203374982E-1
1.531450124E0,6.663249731E-1,-6.062374711E-1,4.203374982E-1
1.551450124E0,8.002499938E-1,-8.503000140E-1,3.636874855E-1
1.571450124E0,8.002499938E-1,-8.503000140E-1,3.636874855E-1
1.591450124E0,8.002499938E-1,-8.503000140E-1,3.636874855E-1
1.611450124E0,8.002499938E-1,-8.503000140E-1,3.636874855E-1
1.631450124E0,8.002499938E-1,-8.503000140E-1,3.636874855E-1
1.651450124E0,8.002499938E-1,-8.503000140E-1,3.636874855E-1
1.671450124E0,8.002499938E-1,-8.503000140E-1,3.636874855E-1
1.691450124E0,8.002499938E-1,-8.503000140E-1,3.636874855E-1
1.711450124E0,8.002499938E-1,-8.503000140E-1,3.636874855E-1
1.731450124E0,8.002499938E-1,-8.503000140E-1,3.636874855E-1
1.751450124E0,8.002499938E-1,-8.503000140E-1,3.636874855E-1
1.771450124E0,8.002499938E-1,-8.503000140E-1,3.636874855E-1
1.791450124E0,1.819124967E-1,-1.381600022E0,-1.229249984E-1
1.811450124E0,1.819124967E-1,-1.381600022E0,-1.229249984E-1
1.831450124E0,-2.099625021E-1,-6.268625259E-1,-2.673000097E-1
1.851450124E0,-2.099625021E-1,-6.268625259E-1,-2.673000097E-1
1.871450124E0,-2.099625021E-1,-6.268625259E-1,-2.673000097E-1
1.891450124E0,-6.516125202E-1,3.778499961E-1,1.985500008E-1
1.911450124E0,-6.516125202E-1,3.778499961E-1,1.985500008E-1
1.931450124E0,-6.249374747E-1,1.220999956E-1,3.819749951E-1
1.951450124E0,-6.249374747E-1,1.220999956E-1,3.819749951E-1
1.971450124E0,-6.249374747E-1,1.220999956E-1,3.819749951E-1
1.991450124E0,-5.586624742E-1,3.689124882E-1,6.003249884E-1
2.011450124E0,-5.586624742E-1,3.689124882E-1,6.003249884E-1
2.031450124E0,-4.041124880E-1,8.986999989E-1,5.882250071E-1
2.051450124E0,-4.041124880E-1,8.986999989E-1,5.882250071E-1
2.071450124E0,-1.692624986E-1,5.779125094E-1,7.858124971E-1
2.091450124E0,-1.692624986E-1,5.779125094E-1,7.858124971E-1
2.111450124E0,-1.692624986E-1,5.779125094E-1,7.858124971E-1
2.131450124E0,3.863750100E-1,-5.109499693E-1,2.667500079E-2
2.151450124E0,3.863750100E-1,-5.109499693E-1,2.667500079E-2
2.171450124E0,4.999499917E-1,6.751249731E-2,-3.562625051E-1
2.191450124E0,4.999499917E-1,6.751249731E-2,-3.562625051E-1
2.211450124E0,3.873375058E-1,3.667125106E-1,5.070999861E-1
2.231450124E0,3.873375058E-1,3.667125106E-1,5.070999861E-1
2.251450124E0,3.873375058E-1,3.667125106E-1,5.070999861E-1
2.271450124E0,2.495625019E-1,1.164624989E-1,1.033587456E0
2.291450124E0,2.495625019E-1,1.164624989E-1,1.033587456E0
2.311450124E0,2.495625019E-1,1.164624989E-1,1.033587456E0
2.331450124E0,2.495625019E-1,1.164624989E-1,1.033587456E0
2.351450124E0,2.495625019E-1,1.164624989E-1,1.033587456E0
2.371450124E0,6.627500057E-2,-2.953499854E-1,1.472074986E0
2.391450124E0,6.627500057E-2,-2.953499854E-1,1.472074986E0
2.411450124E0,4.001250118E-2,-2.631750107E-1,1.367300034E0
2.431450124E0,4.001250118E-2,-2.631750107E-1,1.367300034E0
2.451450124E0,4.001250118E-2,-2.631750107E-1,1.367300034E0
2.471450124E0,3.547500074E-2,-4.043875039E-1,6.943749785E-1
2.491450124E0,3.547500074E-2,-4.043875039E-1,6.943749785E-1
2.511450124E0,6.435000151E-2,-2.536875010E-1,-7.947500050E-2
2.531450124E0,6.435000151E-2,-2.536875010E-1,-7.947500050E-2
2.551450124E0,8.208750188E-2,-1.754499972E-1,-3.440249860E-1
2.571450124E0,8.208750188E-2,-1.754499972E-1,-3.440249860E-1
2.591450124E0,8.208750188E-2,-1.754499972E-1,-3.440249860E-1
2.611450124E0,6.751249731E-2,-1.342000067E-1,1.203124970E-1
2.631450124E0,6.751249731E-2,-1.342000067E-1,1.203124970E-1
2.651450124E0,6.751249731E-2,-1.342000067E-1,1.203124970E-1
2.671450124E0,6.751249731E-2,-1.342000067E-1,1.203124970E-1
2.691450124E0,6.751249731E-2,-1.342000067E-1,1.203124970E-1
2.711450124E0,-4.124999791E-2,3.355000168E-2,6.300249696E-1
2.731450124E0,-4.124999791E-2,3.355000168E-2,6.300249696E-1
2.751450124E0,-1.150875017E-1,2.378749996E-1,7.930999994E-1
2.771450124E0,-1.150875017E-1,2.378749996E-1,7.930999994E-1
2.791450124E0,-8.470000327E-2,4.394499958E-1,8.276125193E-1
2.811450124E0,-7.383749634E-2,4.787749946E-1,8.247249722E-1
2.831450124E0,-7.383749634E-2,4.787749946E-1,8.247249722E-1
2.851450124E0,-3.148749843E-2,4.976125062E-1,4.261125028E-1
2.871450124E0,-3.148749843E-2,4.976125062E-1,4.261125028E-1
2.891450124E0,-5.637500063E-2,3.220250010E-1,2.055625021E-1
2.911450124E0,-5.637500063E-2,3.220250010E-1,2.055625021E-1
2.931450124E0,-5.637500063E-2,3.220250010E-1,2.055625021E-1
2.951450124E0,-2.502499893E-2,4.384875000E-1,2.239875048E-1
2.971450124E0,-2.502499893E-2,4.384875000E-1,2.239875048E-1
2.991450124E0,-2.502499893E-2,4.384875000E-1,2.239875048E-1
3.011450124E0,-2.502499893E-2,4.384875000E-1,2.239875048E-1
3.031450124E0,-2.502499893E-2,4.384875000E-1,2.239875048E-1
3.051450124E0,-1.216875017E-1,4.152500033E-1,2.722499892E-2
3.071450124E0,-1.216875017E-1,4.152500033E-1,2.722499892E-2
3.091450124E0,-1.504250020E-1,4.188250005E-1,-2.173874974E-1
3.111450124E0,-1.504250020E-1,4.188250005E-1,-2.173874974E-1
3.131450124E0,-1.515250057E-1,4.454999864E-1,-2.010249943E-1
3.151450124E0,-1.515250057E-1,4.454999864E-1,-2.010249943E-1
3.171450124E0,-1.515250057E-1,4.454999864E-1,-2.010249943E-1
3.191450124E0,-8.799999952E-2,3.368749917E-1,-5.533000231E-1
3.211450124E0,-8.799999952E-2,3.368749917E-1,-5.533000231E-1
3.231450124E0,-1.663749963E-1,1.744875014E-1,-3.678124845E-1
3.251450124E0,-1.663749963E-1,1.744875014E-1,-3.678124845E-1
3.271450124E0,-1.663749963E-1,1.744875014E-1,-3.678124845E-1
3.291450124E0,-3.081375062E-1,5.403749943E-1,3.612124920E-1
3.311450124E0,-3.081375062E-1,5.403749943E-1,3.612124920E-1
3.331450124E0,-4.984374940E-1,4.208875000E-1,1.261700034E0
3.351450124E0,-4.984374940E-1,4.208875000E-1,1.261700034E0
3.371450124E0,-4.984374940E-1,4.208875000E-1,1.261700034E0
3.391450124E0,-4.984374940E-1,4.208875000E-1,1.261700034E0
3.411450124E0,-4.984374940E-1,4.208875000E-1,1.261700034E0
3.431450124E0,-5.894625187E-1,-6.341499686E-1,1.434949994E0
3.451450124E0,-5.894625187E-1,-6.341499686E-1,1.434949994E0
3.471450124E0,-5.894625187E-1,-6.341499686E-1,1.434949994E0
3.471450124E0,-5.172749758E-1,-8.105624914E-1,1.165862441E0
3.511450124E0,-5.172749758E-1,-8.105624914E-1,1.165862441E0
3.531450124E0,-4.089249969E-1,-8.453499675E-1,8.320124745E-1
3.551450124E0,-4.089249969E-1,-8.453499675E-1,8.320124745E-1
3.571450124E0,-1.831499934E-1,-5.927624702E-1,5.867124796E-1
3.591450124E0,-1.831499934E-1,-5.927624702E-1,5.867124796E-1
3.611450124E0,-4.592499882E-2,-3.012624979E-1,7.748125196E-1
3.631450124E0,-4.592499882E-2,-3.012624979E-1,7.748125196E-1
3.651450124E0,-4.592499882E-2,-3.012624979E-1,7.748125196E-1
3.671450124E0,-1.003750041E-2,-2.223374993E-1,1.021487474E0
3.691450124E0,-1.003750041E-2,-2.223374993E-1,1.021487474E0
3.711450124E0,-5.706249923E-2,-3.568125069E-1,1.164625049E0
3.731450124E0,-5.706249923E-2,-3.568125069E-1,1.164625049E0
3.751450124E0,-5.706249923E-2,-3.568125069E-1,1.164625049E0
3.771450124E0,-1.351625025E-1,-4.725874960E-1,8.958125114E-1
3.791450124E0,-1.351625025E-1,-4.725874960E-1,8.958125114E-1
3.811450124E0,-1.351625025E-1,-4.725874960E-1,8.958125114E-1
3.831450124E0,-1.351625025E-1,-4.725874960E-1,8.958125114E-1
3.851450124E0,-9.679999948E-2,-3.030500114E-1,2.085874975E-1
3.871450124E0,-9.679999948E-2,-3.030500114E-1,2.085874975E-1
3.891450124E0,-9.679999948E-2,-3.030500114E-1,2.085874975E-1
3.911450124E0,-9.184999764E-2,-2.617999911E-1,1.289750040E-1
3.931450124E0,-9.184999764E-2,-2.617999911E-1,1.289750040E-1
3.951450124E0,-3.946249932E-2,-1.326874942E-1,2.461249940E-2
3.971450124E0,-3.946249932E-2,-1.326874942E-1,2.461249940E-2
3.991450124E0,2.310000062E-1,1.964875013E-1,7.466249913E-2
4.011450124E0,2.310000062E-1,1.964875013E-1,7.466249913E-2
4.031450124E0,2.310000062E-1,1.964875013E-1,7.466249913E-2
4.051450124E0,2.026749998E-1,1.859000027E-1,2.524499893E-1
4.071450124E0,2.026749998E-1,1.859000027E-1,2.524499893E-1
4.091450124E0,2.026749998E-1,1.859000027E-1,2.524499893E-1
4.111450124E0,2.662000060E-1,1.773750037E-1,1.897500008E-1
4.131450124E0,2.662000060E-1,1.773750037E-1,1.897500008E-1
4.151450124E0,1.798499972E-1,-1.614249945E-1,8.731249720E-2
4.171450124E0,1.798499972E-1,-1.614249945E-1,8.731249720E-2
4.191450124E0,1.798499972E-1,-1.614249945E-1,8.731249720E-2
4.211450124E0,1.798499972E-1,-1.614249945E-1,8.731249720E-2
4.231450124E0,1.798499972E-1,-1.614249945E-1,8.731249720E-2
4.251450124E0,-1.220999956E-1,-9.079124928E-1,-1.859000027E-1
4.271450124E0,-1.220999956E-1,-9.079124928E-1,-1.859000027E-1
4.291450124E0,-1.220999956E-1,-9.079124928E-1,-1.859000027E-1
4.311450124E0,-1.220999956E-1,-9.079124928E-1,-1.859000027E-1
4.331450124E0,6.201250106E-2,-8.234875202E-1,-1.533125043E-1
4.351450124E0,6.201250106E-2,-8.234875202E-1,-1.533125043E-1
4.371450124E0,6.201250106E-2,-8.234875202E-1,-1.533125043E-1
4.391450124E0,3.772999942E-1,-3.750999868E-1,-8.758749813E-2
4.411450124E0,3.772999942E-1,-3.750999868E-1,-8.758749813E-2
4.431450124E0,3.772999942E-1,-3.750999868E-1,-8.758749813E-2
4.451450124E0,3.772999942E-1,-3.750999868E-1,-8.758749813E-2
4.471450124E0,3.772999942E-1,-3.750999868E-1,-8.758749813E-2
4.491450124E0,3.742749989E-1,8.359999955E-2,-1.053249985E-1
4.511450124E0,3.742749989E-1,8.359999955E-2,-1.053249985E-1
4.531450124E0,8.772499859E-2,-4.413750023E-2,-2.127124965E-1
4.551450124E0,8.772499859E-2,-4.413750023E-2,-2.127124965E-1
4.571450124E0,8.772499859E-2,-4.413750023E-2,-2.127124965E-1
4.591450124E0,7.012499869E-2,8.758749813E-2,-2.935625017E-1
4.611450124E0,7.012499869E-2,8.758749813E-2,-2.935625017E-1
4.631450124E0,9.941250086E-2,3.733125031E-1,-3.815625012E-1
4.651450124E0,9.941250086E-2,3.733125031E-1,-3.815625012E-1
4.671450124E0,8.030000329E-2,4.305124879E-1,-5.937250257E-1
4.691450124E0,8.030000329E-2,4.305124879E-1,-5.937250257E-1
4.711450124E0,8.030000329E-2,4.305124879E-1,-5.937250257E-1
4.731450124E0,5.321250111E-2,3.811500072E-1,-6.587625146E-1
4.751450124E0,5.321250111E-2,3.811500072E-1,-6.587625146E-1
4.771450124E0,5.238749832E-2,4.068624973E-1,-6.307125092E-1
4.791450124E0,5.238749832E-2,4.068624973E-1,-6.307125092E-1
4.811450124E0,5.238749832E-2,4.068624973E-1,-6.307125092E-1
4.831450124E0,4.413750023E-2,3.984749913E-1,-4.357374907E-1
4.851450124E0,4.413750023E-2,3.984749913E-1,-4.357374907E-1
4.871450124E0,4.949999973E-3,3.239499927E-1,-2.870999873E-1
4.891450124E0,4.949999973E-3,3.239499927E-1,-2.870999873E-1
4.911450124E0,4.949999973E-3,3.239499927E-1,-2.870999873E-1
4.931450124E0,-1.292499993E-2,3.192749918E-1,-1.509750038E-1
4.951450124E0,-1.292499993E-2,3.192749918E-1,-1.509750038E-1
4.971450124E0,2.089999989E-2,4.034250081E-1,-3.024999984E-2
4.991450124E0,2.089999989E-2,4.034250081E-1,-3.024999984E-2
5.011450124E0,-1.374999993E-3,3.711124957E-1,-1.388750039E-2
5.031450124E0,-1.374999993E-3,3.711124957E-1,-1.388750039E-2
5.051450124E0,-5.871250108E-2,2.259124964E-1,-9.088750184E-2
5.071450124E0,-5.871250108E-2,2.259124964E-1,-9.088750184E-2
5.091450124E0,-5.871250108E-2,2.259124964E-1,-9.088750184E-2
5.111450124E0,-7.287500054E-2,8.346249908E-2,-1.585374922E-1
5.131450124E0,-7.287500054E-2,8.346249908E-2,-1.585374922E-1
5.151450124E0,-7.287500054E-2,8.346249908E-2,-1.585374922E-1
5.171450124E0,-2.983750030E-2,8.002500236E-2,-5.596249923E-2
5.191450124E0,-2.983750030E-2,8.002500236E-2,-5.596249923E-2
5.211450124E0,1.127499994E-2,1.061500013E-1,8.717499673E-2
5.231450124E0,1.127499994E-2,1.061500013E-1,8.717499673E-2
5.251450124E0,2.887499984E-3,5.843750015E-2,1.082125008E-1
5.271450124E0,2.887499984E-3,5.843750015E-2,1.082125008E-1
5.291450124E0,2.887499984E-3,5.843750015E-2,1.082125008E-1
5.311450124E0,5.362499971E-3,1.292499993E-2,1.586750001E-1
5.331450124E0,5.362499971E-3,1.292499993E-2,1.586750001E-1
5.351450124E0,1.099999994E-2,-2.873750031E-2,1.842499971E-1
5.371450124E0,1.099999994E-2,-2.873750031E-2,1.842499971E-1
5.391450124E0,-1.567500085E-2,-1.410750002E-1,9.143749624E-2
5.411450124E0,-1.567500085E-2,-1.410750002E-1,9.143749624E-2
5.431450124E0,-1.567500085E-2,-1.410750002E-1,9.143749624E-2
5.451450124E0,-1.952499896E-2,-1.787499934E-1,-8.167500049E-2
5.471450124E0,-1.952499896E-2,-1.787499934E-1,-8.167500049E-2
5.491450124E0,-1.952499896E-2,-1.787499934E-1,-8.167500049E-2
5.511450124E0,-1.952499896E-2,-1.787499934E-1,-8.167500049E-2
5.531450124E0,-1.952499896E-2,-1.787499934E-1,-8.167500049E-2
5.551450124E0,7.383749634E-2,-1.231999993E-1,-6.049999967E-2
5.571450124E0,7.383749634E-2,-1.231999993E-1,-6.049999967E-2
5.591450124E0,9.693749994E-2,-4.399999976E-2,3.176249936E-2
5.611450124E0,9.693749994E-2,-4.399999976E-2,3.176249936E-2
5.631450124E0,9.693749994E-2,-4.399999976E-2,3.176249936E-2
5.651450124E0,9.432499856E-2,1.924999990E-3,5.101250112E-2
5.671450124E0,9.432499856E-2,1.924999990E-3,5.101250112E-2
5.691450124E0,8.855000138E-2,3.093750030E-2,3.684999794E-2
5.711450124E0,8.855000138E-2,3.093750030E-2,3.684999794E-2
5.731450124E0,6.462500244E-2,2.914999984E-2,2.062499896E-2
5.751450124E0,6.462500244E-2,2.914999984E-2,2.062499896E-2
5.771450124E0,6.462500244E-2,2.914999984E-2,2.062499896E-2
5.791450124E0,2.722499892E-2,8.662499487E-3,-2.571249940E-2
5.811450124E0,2.722499892E-2,8.662499487E-3,-2.571249940E-2
5.831450124E0,1.924999990E-3,-2.804999985E-2,-1.402499974E-1
5.851450124E0,1.924999990E-3,-2.804999985E-2,-1.402499974E-1
5.871450124E0,1.924999990E-3,-2.804999985E-2,-1.402499974E-1
5.891450124E0,4.537499975E-3,-9.074999951E-3,-1.010624990E-1
5.911450124E0,4.537499975E-3,-9.074999951E-3,-1.010624990E-1
5.931450124E0,-1.306249946E-2,-1.086249948E-2,-1.402499992E-2
5.951450124E0,-1.306249946E-2,-1.086249948E-2,-1.402499992E-2
5.971450124E0,-1.306249946E-2,-1.086249948E-2,-1.402499992E-2
5.991450124E0,-4.083750024E-2,-5.156249925E-2,5.995000154E-2
6.011450124E0,-4.083750024E-2,-5.156249925E-2,5.995000154E-2
6.031450124E0,-2.172499895E-2,-2.667500079E-2,4.124999791E-2
6.051450124E0,-2.172499895E-2,-2.667500079E-2,4.124999791E-2
6.071450124E0,2.337500080E-2,7.603749633E-2,-2.928750031E-2
6.091450124E0,2.337500080E-2,7.603749633E-2,-2.928750031E-2
6.111450124E0,2.337500080E-2,7.603749633E-2,-2.928750031E-2
6.131450124E0,1.828750037E-2,3.107500076E-2,-1.319999993E-1
6.151450124E0,1.828750037E-2,3.107500076E-2,-1.319999993E-1
6.171450124E0,1.801249944E-2,-1.952499896E-2,-1.385999918E-1
6.191450124E0,1.801249944E-2,-1.952499896E-2,-1.385999918E-1
6.211450124E0,1.801249944E-2,-1.952499896E-2,-1.385999918E-1
6.231450124E0,1.663750038E-2,1.512499992E-2,-1.027124971E-1
6.251450124E0,1.663750038E-2,1.512499992E-2,-1.027124971E-1
6.271450124E0,2.034999989E-2,2.268750034E-2,-8.566249907E-2
6.291450124E0,2.034999989E-2,2.268750034E-2,-8.566249907E-2
6.311450124E0,2.034999989E-2,2.268750034E-2,-8.566249907E-2
6.331450124E0,2.034999989E-2,2.268750034E-2,-8.566249907E-2
6.351450124E0,2.034999989E-2,2.268750034E-2,-8.566249907E-2
6.371450124E0,1.402499992E-2,-4.509999976E-2,-6.379999965E-2
6.391450124E0,1.402499992E-2,-4.509999976E-2,-6.379999965E-2
6.411450124E0,7.562499959E-3,-2.227500081E-2,-3.368749842E-2
6.431450124E0,7.562499959E-3,-2.227500081E-2,-3.368749842E-2
6.451450124E0,7.562499959E-3,-2.227500081E-2,-3.368749842E-2
6.471450124E0,1.086249948E-2,-4.619999975E-2,-1.787499990E-3
6.491450124E0,1.086249948E-2,-4.619999975E-2,-1.787499990E-3
6.511450124E0,-1.924999990E-3,-1.194875017E-1,-3.574999981E-3
6.531450124E0,-1.924999990E-3,-1.194875017E-1,-3.574999981E-3
6.551450124E0,-6.874999963E-3,-9.088750184E-2,-2.722499892E-2
6.571450124E0,-6.874999963E-3,-9.088750184E-2,-2.722499892E-2
6.591450124E0,-6.874999963E-3,-9.088750184E-2,-2.722499892E-2
6.611450124E0,1.044999994E-2,-3.038750030E-2,-6.187500060E-2
6.631450124E0,1.044999994E-2,-3.038750030E-2,-6.187500060E-2
6.651450124E0,7.507500052E-2,2.681249939E-2,-8.277499676E-2
6.671450124E0,7.507500052E-2,2.681249939E-2,-8.277499676E-2
6.691450124E0,7.507500052E-2,2.681249939E-2,-8.277499676E-2
6.711450124E0,1.109625027E-1,1.388750039E-2,-5.142499879E-2
6.731450124E0,1.109625027E-1,1.388750039E-2,-5.142499879E-2
6.751450124E0,6.792499870E-2,-3.162499890E-2,6.531249732E-2
6.771450124E0,6.792499870E-2,-3.162499890E-2,6.531249732E-2
6.791450124E0,6.792499870E-2,-3.162499890E-2,6.531249732E-2
6.791450124E0,2.213750035E-2,-1.116499975E-1,1.249874979E-1
6.831450124E0,2.213750035E-2,-1.116499975E-1,1.249874979E-1
6.851450124E0,-1.924999990E-2,-1.588124931E-1,8.799999952E-2
6.871450124E0,-1.924999990E-2,-1.588124931E-1,8.799999952E-2
6.891450124E0,-4.812499974E-3,-8.084999770E-2,3.946249932E-2
6.911450124E0,-4.812499974E-3,-8.084999770E-2,3.946249932E-2
6.931450124E0,-1.649999991E-3,-6.737499684E-2,-8.332499862E-2
6.951450124E0,-1.649999991E-3,-6.737499684E-2,-8.332499862E-2
6.971450124E0,-1.649999991E-3,-6.737499684E-2,-8.332499862E-2
6.991450124E0,-1.677500084E-2,-1.335124969E-1,-1.414874941E-1
7.011450124E0,-1.677500084E-2,-1.335124969E-1,-1.414874941E-1
7.031450124E0,-1.677500084E-2,-1.335124969E-1,-1.414874941E-1
7.051450124E0,-1.374999993E-3,-1.347499937E-1,-1.051874980E-1
7.071450124E0,-1.374999993E-3,-1.347499937E-1,-1.051874980E-1
7.091450124E0,2.461249940E-2,-1.700875014E-1,-6.242499873E-2
7.111450124E0,2.461249940E-2,-1.700875014E-1,-6.242499873E-2
7.131450124E0,3.698749840E-2,-1.579875052E-1,-1.292499993E-2
7.151450124E0,3.698749840E-2,-1.579875052E-1,-1.292499993E-2
7.171450124E0,3.698749840E-2,-1.579875052E-1,-1.292499993E-2
7.191450124E0,3.121249937E-2,-1.231999993E-1,4.441250116E-2
7.211450124E0,3.121249937E-2,-1.231999993E-1,4.441250116E-2
7.231450124E0,7.287500054E-2,-4.991250113E-2,5.967500061E-2
7.251450124E0,7.287500054E-2,-4.991250113E-2,5.967500061E-2
7.271450124E0,1.016125008E-1,1.031249948E-2,8.964999765E-2
7.291450124E0,1.016125008E-1,1.031249948E-2,8.964999765E-2
7.311450124E0,1.016125008E-1,1.031249948E-2,8.964999765E-2
7.331450124E0,1.016125008E-1,1.031249948E-2,8.964999765E-2
7.351450124E0,1.016125008E-1,1.031249948E-2,8.964999765E-2
7.371450124E0,4.303750023E-2,-1.139874980E-1,1.555124968E-1
7.391450124E0,4.303750023E-2,-1.139874980E-1,1.555124968E-1
7.411450124E0,4.303750023E-2,-1.139874980E-1,1.555124968E-1
7.431450124E0,4.138749838E-2,-1.076624990E-1,1.403875053E-1
7.451450124E0,4.138749838E-2,-1.076624990E-1,1.403875053E-1
7.471450124E0,6.696250290E-2,-1.127499994E-2,7.259999961E-2
7.491450124E0,6.696250290E-2,-1.127499994E-2,7.259999961E-2
7.511450124E0,6.696250290E-2,-1.127499994E-2,7.259999961E-2
7.531450124E0,2.942499891E-2,-2.172499895E-2,1.402499992E-2
7.551450124E0,2.942499891E-2,-2.172499895E-2,1.402499992E-2
7.571450124E0,-7.975000143E-2,-1.087625027E-1,4.124999978E-4
7.591450124E0,-7.975000143E-2,-1.087625027E-1,4.124999978E-4
7.611450124E0,-9.253749996E-2,-4.564999789E-2,-9.735000134E-2
7.631450124E0,-9.253749996E-2,-4.564999789E-2,-9.735000134E-2
7.651450124E0,-9.253749996E-2,-4.564999789E-2,-9.735000134E-2
7.671450124E0,-8.002500236E-2,3.932499886E-2,-1.772374958E-1
7.691450124E0,-8.002500236E-2,3.932499886E-2,-1.772374958E-1
7.711450124E0,-5.128749833E-2,6.655000150E-2,-1.216875017E-1
7.731450124E0,-5.128749833E-2,6.655000150E-2,-1.216875017E-1
7.751450124E0,-5.128749833E-2,6.655000150E-2,-1.216875017E-1
7.771450124E0,3.313750029E-2,1.630750000E-1,-8.304999769E-2
7.791450124E0,3.313750029E-2,1.630750000E-1,-8.304999769E-2
7.811450124E0,6.641250104E-2,1.856250018E-1,4.949999973E-3
7.831450124E0,6.641250104E-2,1.856250018E-1,4.949999973E-3
7.851450124E0,6.641250104E-2,1.856250018E-1,4.949999973E-3
7.871450124E0,6.641250104E-2,1.856250018E-1,4.949999973E-3
7.891450124E0,6.641250104E-2,1.856250018E-1,4.949999973E-3
7.911450124E0,-6.215000153E-2,-2.433750033E-2,9.116250277E-2
7.931450124E0,-6.215000153E-2,-2.433750033E-2,9.116250277E-2
7.951450124E0,-8.566249907E-2,-3.547500074E-2,7.975000143E-2
7.971450124E0,-8.566249907E-2,-3.547500074E-2,7.975000143E-2
7.991450124E0,-5.719999969E-2,4.124999791E-2,-5.499999970E-4
8.011450124E0,-5.719999969E-2,4.124999791E-2,-5.499999970E-4
8.031450124E0,-5.719999969E-2,4.124999791E-2,-5.499999970E-4
8.051450124E0,-1.127499994E-2,9.707500041E-2,-1.014750004E-1
8.071450124E0,-1.127499994E-2,9.707500041E-2,-1.014750004E-1
8.091450124E0,-1.127499994E-2,9.707500041E-2,-1.014750004E-1
8.111450124E0,6.737499963E-3,1.115124971E-1,-4.537500069E-2
8.131450124E0,6.737499963E-3,1.115124971E-1,-4.537500069E-2
8.151450124E0,9.487500414E-3,1.076624990E-1,7.727500051E-2
8.171450124E0,9.487500414E-3,1.076624990E-1,7.727500051E-2
8.191450124E0,3.093750030E-2,1.315875053E-1,7.026249915E-2
8.211450124E0,3.093750030E-2,1.315875053E-1,7.026249915E-2
8.231450124E0,3.093750030E-2,1.315875053E-1,7.026249915E-2
8.251450124E0,2.653750032E-2,1.333750039E-1,8.030000329E-2
8.271450124E0,2.653750032E-2,1.333750039E-1,8.030000329E-2
8.291450124E0,2.653750032E-2,1.333750039E-1,8.030000329E-2
8.311450124E0,2.653750032E-2,1.333750039E-1,8.030000329E-2
8.331450124E0,-3.478749841E-2,1.164624989E-1,-1.347499993E-2
8.351450124E0,-3.478749841E-2,1.164624989E-1,-1.347499993E-2
8.371450124E0,-3.478749841E-2,1.164624989E-1,-1.347499993E-2
8.391450124E0,-2.969999984E-2,1.310375035E-1,-1.194875017E-1
8.411450124E0,-2.969999984E-2,1.310375035E-1,-1.194875017E-1
8.431450124E0,-2.969999984E-2,1.310375035E-1,-1.194875017E-1
8.451450124E0,-2.969999984E-2,1.310375035E-1,-1.194875017E-1
8.471450124E0,-2.969999984E-2,1.310375035E-1,-1.194875017E-1
8.491450124E0,-9.583749622E-2,3.437500075E-2,-1.168750003E-1
8.511450124E0,-9.583749622E-2,3.437500075E-2,-1.168750003E-1
8.531450124E0,-7.548750192E-2,4.812499974E-3,-9.363749623E-2
8.551450124E0,-7.548750192E-2,4.812499974E-3,-9.363749623E-2
8.571450124E0,-7.548750192E-2,4.812499974E-3,-9.363749623E-2
8.591450124E0,-4.427500069E-2,3.217500076E-2,-5.788749829E-2
8.611450124E0,-4.427500069E-2,3.217500076E-2,-5.788749829E-2
8.631450124E0,-2.598750032E-2,8.084999770E-2,-2.447500080E-2
8.651450124E0,-2.598750032E-2,8.084999770E-2,-2.447500080E-2
8.671450124E0,-2.914999984E-2,9.831249714E-2,1.759999990E-2
8.691450124E0,-2.914999984E-2,9.831249714E-2,1.759999990E-2
8.711450124E0,-2.914999984E-2,9.831249714E-2,1.759999990E-2
8.731450124E0,-3.533750027E-2,1.377750039E-1,4.564999789E-2
8.751450124E0,-3.533750027E-2,1.377750039E-1,4.564999789E-2
8.771450124E0,-3.038750030E-2,1.677500010E-1,4.221250117E-2
8.791450124E0,-3.038750030E-2,1.677500010E-1,4.221250117E-2
8.811450124E0,-3.038750030E-2,1.677500010E-1,4.221250117E-2
8.831450124E0,-3.712499887E-2,2.237125039E-1,2.007500082E-2
8.851450124E0,-3.712499887E-2,2.237125039E-1,2.007500082E-2
8.871450124E0,-4.166249931E-2,2.006125003E-1,-4.124999978E-3
8.891450124E0,-4.166249931E-2,2.006125003E-1,-4.124999978E-3
8.911450124E0,-4.166249931E-2,2.006125003E-1,-4.124999978E-3
8.931450124E0,-4.166249931E-2,2.006125003E-1,-4.124999978E-3
8.951450124E0,-4.166249931E-2,2.006125003E-1,-4.124999978E-3
8.971450124E0,-6.063750014E-2,1.456124932E-1,-4.083750024E-2
8.991450124E0,-6.063750014E-2,1.456124932E-1,-4.083750024E-2
9.011450124E0,-6.008749828E-2,1.611499935E-1,-2.268750034E-2
9.031450124E0,-6.008749828E-2,1.611499935E-1,-2.268750034E-2
9.051450124E0,-4.001250118E-2,1.454750001E-1,9.624999948E-3
9.071450124E0,-4.001250118E-2,1.454750001E-1,9.624999948E-3
9.091450124E0,-4.001250118E-2,1.454750001E-1,9.624999948E-3
9.111450124E0,-3.739999980E-2,1.438249946E-1,2.117500082E-2
9.131450124E0,-3.739999980E-2,1.438249946E-1,2.117500082E-2
9.151450124E0,-3.739999980E-2,1.438249946E-1,2.117500082E-2
9.171450124E0,-4.743750021E-2,1.021625027E-1,1.704999991E-2
9.191450124E0,-4.743750021E-2,1.021625027E-1,1.704999991E-2
9.211450124E0,-5.018749833E-2,6.531249732E-2,5.912499968E-3
9.231450124E0,-5.018749833E-2,6.531249732E-2,5.912499968E-3
9.251450124E0,-5.156249925E-2,6.324999779E-2,-4.455000162E-2
9.271450124E0,-5.156249925E-2,6.324999779E-2,-4.455000162E-2
9.291450124E0,-5.156249925E-2,6.324999779E-2,-4.455000162E-2
9.311450124E0,-5.156249925E-2,6.324999779E-2,-4.455000162E-2
9.331450124E0,-5.156249925E-2,6.324999779E-2,-4.455000162E-2
9.351450124E0,-4.482499883E-2,8.387500048E-2,-4.633750021E-2
9.371450124E0,-4.482499883E-2,8.387500048E-2,-4.633750021E-2
9.391450124E0,-4.482499883E-2,8.387500048E-2,-4.633750021E-2
9.411450124E0,-2.653750032E-2,1.553750038E-1,-2.516249940E-2
9.431450124E0,-2.653750032E-2,1.553750038E-1,-2.516249940E-2
9.451450124E0,-1.993750036E-2,1.699499935E-1,1.581249945E-2
9.471450124E0,-1.993750036E-2,1.699499935E-1,1.581249945E-2
9.491450124E0,-1.993750036E-2,1.699499935E-1,1.581249945E-2
9.491450124E0,6.462499965E-3,1.935999990E-1,2.089999989E-2
9.531450124E0,6.462499965E-3,1.935999990E-1,2.089999989E-2
9.551450124E0,1.842499897E-2,1.637624949E-1,1.402499992E-2
9.571450124E0,1.842499897E-2,1.637624949E-1,1.402499992E-2
9.591450124E0,9.487500414E-3,9.515000135E-2,1.251249947E-2
9.611450124E0,9.487500414E-3,9.515000135E-2,1.251249947E-2
9.631450124E0,9.487500414E-3,9.515000135E-2,1.251249947E-2
9.651450124E0,1.031249948E-2,5.458749831E-2,3.437499981E-3
9.671450124E0,1.031249948E-2,5.458749831E-2,3.437499981E-3
9.691450124E0,2.433750033E-2,3.987500072E-2,-2.749999985E-2
9.711450124E0,2.433750033E-2,3.987500072E-2,-2.749999985E-2
9.731450124E0,2.048750035E-2,-2.749999985E-4,-1.223750040E-2
9.751450124E0,2.048750035E-2,-2.749999985E-4,-1.223750040E-2
9.771450124E0,2.048750035E-2,-2.749999985E-4,-1.223750040E-2
9.791450124E0,2.626249939E-2,-1.498750038E-2,1.526249945E-2
9.811450124E0,2.626249939E-2,-1.498750038E-2,1.526249945E-2
9.831450124E0,2.653750032E-2,-3.574999981E-3,2.942499891E-2
9.851450124E0,2.653750032E-2,-3.574999981E-3,2.942499891E-2
9.871450124E0,2.653750032E-2,-3.574999981E-3,2.942499891E-2
9.891450124E0,1.306249946E-2,-2.983750030E-2,2.722499892E-2
9.911450124E0,1.306249946E-2,-2.983750030E-2,2.722499892E-2
9.931450124E0,6.874999963E-4,-5.788749829E-2,2.942499891E-2
9.951450124E0,6.874999963E-4,-5.788749829E-2,2.942499891E-2
9.971450124E0,6.874999963E-4,-5.788749829E-2,2.942499891E-2
9.991450124E0,6.874999963E-4,-5.788749829E-2,2.942499891E-2
1.001145012E1,6.874999963E-4,-5.788749829E-2,2.942499891E-2
1.003145012E1,-1.924999990E-2,-1.509750038E-1,2.337500080E-2
1.005145012E1,-1.924999990E-2,-1.509750038E-1,2.337500080E-2
1.007145012E1,-1.649999991E-2,-1.593624949E-1,7.424999960E-3
1.009145012E1,-1.649999991E-2,-1.593624949E-1,7.424999960E-3
1.011145012E1,-1.361249946E-2,-9.391249716E-2,6.874999963E-3
1.013145012E1,-1.361249946E-2,-9.391249716E-2,6.874999963E-3
1.015145012E1,-1.361249946E-2,-9.391249716E-2,6.874999963E-3
1.017145012E1,-2.378750034E-2,-4.028749838E-2,3.643750027E-2
1.019145012E1,-2.378750034E-2,-4.028749838E-2,3.643750027E-2
1.021145012E1,-2.378750034E-2,-4.028749838E-2,3.643750027E-2
1.023145012E1,-2.378750034E-2,-4.028749838E-2,3.643750027E-2
1.025145012E1,-2.378750034E-2,-4.028749838E-2,3.643750027E-2
1.027145012E1,-4.496249929E-2,-5.087500066E-2,1.952499896E-2
1.029145012E1,-4.496249929E-2,-5.087500066E-2,1.952499896E-2
1.031145012E1,-4.496249929E-2,-5.087500066E-2,1.952499896E-2
1.033145012E1,-4.496249929E-2,-5.087500066E-2,1.952499896E-2
1.035145012E1,-4.496249929E-2,-5.087500066E-2,1.952499896E-2
1.037145012E1,-5.706249923E-2,-9.350000322E-2,-7.837500423E-3
1.039145012E1,-5.706249923E-2,-9.350000322E-2,-7.837500423E-3
1.041145012E1,-3.739999980E-2,-1.079374999E-1,-2.144999988E-2
1.043145012E1,-3.739999980E-2,-1.079374999E-1,-2.144999988E-2
1.045145012E1,-3.739999980E-2,-1.079374999E-1,-2.144999988E-2
1.047145012E1,-1.814999990E-2,-1.594999991E-2,-3.162499890E-2
1.049145012E1,-1.814999990E-2,-1.594999991E-2,-3.162499890E-2
1.051145012E1,-7.149999961E-3,8.002500236E-2,-4.028749838E-2
1.053145012E1,-7.149999961E-3,8.002500236E-2,-4.028749838E-2
1.055145012E1,-2.117500082E-2,7.837499678E-2,-7.301250100E-2
1.057145012E1,-2.117500082E-2,7.837499678E-2,-7.301250100E-2
1.059145012E1,-2.117500082E-2,7.837499678E-2,-7.301250100E-2
1.061145012E1,-4.331250116E-2,6.737499684E-2,-7.535000145E-2
1.063145012E1,-4.331250116E-2,6.737499684E-2,-7.535000145E-2
1.065145012E1,-2.736249939E-2,8.030000329E-2,-6.792499870E-2
1.067145012E1,-2.736249939E-2,8.030000329E-2,-6.792499870E-2
1.069145012E1,-2.736249939E-2,8.030000329E-2,-6.792499870E-2
1.071145012E1,-1.773750037E-2,6.971249729E-2,-4.248749837E-2
1.073145012E1,-1.773750037E-2,6.971249729E-2,-4.248749837E-2
1.075145012E1,-1.526249945E-2,4.991250113E-2,-1.649999991E-2
1.077145012E1,-1.526249945E-2,4.991250113E-2,-1.649999991E-2
1.079145012E1,-7.562499959E-3,6.104999781E-2,2.488750033E-2
1.081145012E1,-7.562499959E-3,6.104999781E-2,2.488750033E-2
1.083145012E1,-7.562499959E-3,6.104999781E-2,2.488750033E-2
1.085145012E1,3.616249934E-2,1.149500012E-1,3.368749842E-2
1.087145012E1,3.616249934E-2,1.149500012E-1,3.368749842E-2
1.089145012E1,2.571249940E-2,5.362499878E-2,1.732499897E-2
1.091145012E1,2.571249940E-2,5.362499878E-2,1.732499897E-2
1.093145012E1,2.571249940E-2,5.362499878E-2,1.732499897E-2
1.095145012E1,1.526249945E-2,-1.347499993E-2,-4.028749838E-2
1.097145012E1,1.526249945E-2,-1.347499993E-2,-4.028749838E-2
1.099145012E1,-4.262499977E-3,-2.639999986E-2,-4.441250116E-2
1.101145012E1,-4.262499977E-3,-2.639999986E-2,-4.441250116E-2
1.103145012E1,-5.912499968E-3,-3.932499886E-2,-3.148749843E-2
1.105145012E1,-5.912499968E-3,-3.932499886E-2,-3.148749843E-2
1.107145012E1,-5.912499968E-3,-3.932499886E-2,-3.148749843E-2
1.109145012E1,1.044999994E-2,-8.415000141E-2,-3.629999980E-2
1.111145012E1,1.044999994E-2,-8.415000141E-2,-3.629999980E-2
1.113145012E1,2.076249942E-2,-7.906249911E-2,-2.364999987E-2
1.115145012E1,2.076249942E-2,-7.906249911E-2,-2.364999987E-2
1.117145012E1,3.877500072E-2,-6.270000339E-2,-6.599999964E-3
1.119145012E1,3.877500072E-2,-6.270000339E-2,-6.599999964E-3
1.121145012E1,3.877500072E-2,-6.270000339E-2,-6.599999964E-3
1.123145012E1,6.943749636E-2,-8.016250283E-2,1.182499994E-2
1.125145012E1,6.943749636E-2,-8.016250283E-2,1.182499994E-2
1.127145012E1,6.943749636E-2,-8.016250283E-2,1.182499994E-2
1.129145012E1,6.943749636E-2,-8.016250283E-2,1.182499994E-2
1.131145012E1,6.943749636E-2,-8.016250283E-2,1.182499994E-2
1.133145012E1,3.753750026E-2,-3.726249933E-2,1.237499993E-2
1.135145012E1,3.753750026E-2,-3.726249933E-2,1.237499993E-2
1.137145012E1,1.732499897E-2,-2.364999987E-2,1.044999994E-2
1.139145012E1,1.732499897E-2,-2.364999987E-2,1.044999994E-2
1.141145012E1,1.732499897E-2,-2.364999987E-2,1.044999994E-2
1.143145012E1,2.419999987E-2,-1.099999994E-2,1.649999991E-2
1.145145012E1,2.419999987E-2,-1.099999994E-2,1.649999991E-2
1.147145012E1,1.691249944E-2,-1.649999991E-3,8.524999954E-3
1.149145012E1,1.691249944E-2,-1.649999991E-3,8.524999954E-3
1.151145012E1,1.553750038E-2,-4.028749838E-2,-2.144999988E-2
1.153145012E1,1.553750038E-2,-4.028749838E-2,-2.144999988E-2
1.155145012E1,1.553750038E-2,-4.028749838E-2,-2.144999988E-2
1.157145012E1,2.419999987E-2,-8.277499676E-2,-8.524999954E-3
1.159145012E1,2.419999987E-2,-8.277499676E-2,-8.524999954E-3
1.161145012E1,2.708750032E-2,-4.963750020E-2,2.612499986E-3
1.163145012E1,2.708750032E-2,-4.963750020E-2,2.612499986E-3
1.165145012E1,2.708750032E-2,-4.963750020E-2,2.612499986E-3
1.167145012E1,1.636249945E-2,-3.684999794E-2,5.362499971E-3
1.169145012E1,1.636249945E-2,-3.684999794E-2,5.362499971E-3
1.171145012E1,1.141249947E-2,-3.932499886E-2,2.557500079E-2
1.173145012E1,1.141249947E-2,-3.932499886E-2,2.557500079E-2
1.175145012E1,1.141249947E-2,-3.932499886E-2,2.557500079E-2
1.177145012E1,1.649999991E-2,-4.496249929E-2,3.492499888E-2
1.179145012E1,1.649999991E-2,-4.496249929E-2,3.492499888E-2
1.181145012E1,2.763750032E-2,-6.517499685E-2,2.557500079E-2
1.183145012E1,2.763750032E-2,-6.517499685E-2,2.557500079E-2
1.185145012E1,2.777500078E-2,-8.772499859E-2,2.007500082E-2
1.187145012E1,2.777500078E-2,-8.772499859E-2,2.007500082E-2
1.189145012E1,2.777500078E-2,-8.772499859E-2,2.007500082E-2
1.191145012E1,1.553750038E-2,-1.038125008E-1,1.608750038E-2
1.193145012E1,1.553750038E-2,-1.038125008E-1,1.608750038E-2
1.195145012E1,2.887499984E-3,-8.470000327E-2,6.599999964E-3
1.197145012E1,2.887499984E-3,-8.470000327E-2,6.599999964E-3
1.199145012E1,2.337499987E-3,-4.358749837E-2,-5.362499971E-3
1.201145012E1,2.337499987E-3,-4.358749837E-2,-5.362499971E-3
1.203145012E1,2.337499987E-3,-4.358749837E-2,-5.362499971E-3
1.205145012E1,-1.058750041E-2,2.406249940E-2,-1.003750041E-2
1.207145012E1,-1.058750041E-2,2.406249940E-2,-1.003750041E-2
1.209145012E1,-1.443750039E-2,2.653750032E-2,-1.278750040E-2
1.211145012E1,-1.443750039E-2,2.653750032E-2,-1.278750040E-2
1.213145012E1,-1.443750039E-2,2.653750032E-2,-1.278750040E-2
1.215145012E1,-1.072499994E-2,1.718750037E-2,-1.154999994E-2
1.217145012E1,-1.072499994E-2,1.718750037E-2,-1.154999994E-2
1.219145012E1,2.749999985E-4,1.526249945E-2,-1.333750039E-2
1.221145012E1,2.749999985E-4,1.526249945E-2,-1.333750039E-2
1.223145012E1,2.749999985E-4,1.526249945E-2,-1.333750039E-2
1.225145012E1,8.799999952E-3,8.249999955E-4,-6.324999966E-3
1.227145012E1,8.799999952E-3,8.249999955E-4,-6.324999966E-3
1.229145012E1,2.282499894E-2,-3.299999982E-3,-4.537499975E-3
1.231145012E1,2.282499894E-2,-3.299999982E-3,-4.537499975E-3
1.233145012E1,1.594999991E-2,5.499999970E-4,-3.024999984E-3
1.235145012E1,1.594999991E-2,5.499999970E-4,-3.024999984E-3
1.237145012E1,1.594999991E-2,5.499999970E-4,-3.024999984E-3
1.239145012E1,6.462499965E-3,5.087499972E-3,-2.062499989E-3
1.241145012E1,6.462499965E-3,5.087499972E-3,-2.062499989E-3
1.243145012E1,-3.574999981E-3,2.378750034E-2,-4.124999978E-4
1.245145012E1,-3.574999981E-3,2.378750034E-2,-4.124999978E-4
1.247145012E1,-3.574999981E-3,2.378750034E-2,-4.124999978E-4
1.249145012E1,-2.474999987E-3,2.736249939E-2,9.074999951E-3
1.251145012E1,-2.474999987E-3,2.736249939E-2,9.074999951E-3
1.253145012E1,-2.199999988E-3,2.749999985E-2,1.787500083E-2
1.255145012E1,-2.199999988E-3,2.749999985E-2,1.787500083E-2
1.257145012E1,-9.624999948E-4,1.058750041E-2,2.089999989E-2
1.259145012E1,-9.624999948E-4,1.058750041E-2,2.089999989E-2
1.261145012E1,-9.624999948E-4,1.058750041E-2,2.089999989E-2
1.263145012E1,4.949999973E-3,-6.874999963E-3,2.241249941E-2
1.265145012E1,4.949999973E-3,-6.874999963E-3,2.241249941E-2
1.267145012E1,1.924999990E-2,1.361249946E-2,1.347499993E-2
1.269145012E1,1.924999990E-2,1.361249946E-2,1.347499993E-2
1.271145012E1,1.924999990E-2,1.361249946E-2,1.347499993E-2
1.273145012E1,7.974999957E-3,8.799999952E-3,-1.787499990E-3
1.275145012E1,7.974999957E-3,8.799999952E-3,-1.787499990E-3
1.277145012E1,7.974999957E-3,8.799999952E-3,-1.787499990E-3
1.279145012E1,7.974999957E-3,8.799999952E-3,-1.787499990E-3
1.281145012E1,7.974999957E-3,8.799999952E-3,-1.787499990E-3
1.283145012E1,-3.162499983E-3,2.736249939E-2,-7.287499961E-3
1.285145012E1,-3.162499983E-3,2.736249939E-2,-7.287499961E-3
1.287145012E1,-2.749999985E-4,4.166249931E-2,-1.608750038E-2
1.289145012E1,-2.749999985E-4,4.166249931E-2,-1.608750038E-2
1.291145012E1,-9.487500414E-3,4.028749838E-2,-2.172499895E-2
1.293145012E1,-9.487500414E-3,4.028749838E-2,-2.172499895E-2
1.295145012E1,-9.487500414E-3,4.028749838E-2,-2.172499895E-2
1.297145012E1,-1.787500083E-2,7.246249914E-2,-1.814999990E-2
1.299145012E1,-1.787500083E-2,7.246249914E-2,-1.814999990E-2
1.301145012E1,-1.306249946E-2,7.548750192E-2,-2.268750034E-2
1.303145012E1,-1.306249946E-2,7.548750192E-2,-2.268750034E-2
1.305145012E1,-9.212499484E-3,5.238749832E-2,-2.928750031E-2
1.307145012E1,-9.212499484E-3,5.238749832E-2,-2.928750031E-2
1.309145012E1,-9.212499484E-3,5.238749832E-2,-2.928750031E-2
1.311145012E1,-1.003750041E-2,4.248749837E-2,-2.131249942E-2
1.313145012E1,-1.003750041E-2,4.248749837E-2,-2.131249942E-2
1.315145012E1,-1.003750041E-2,4.248749837E-2,-2.131249942E-2
1.317145012E1,-1.003750041E-2,4.248749837E-2,-2.131249942E-2
1.319145012E1,-1.003750041E-2,4.248749837E-2,-2.131249942E-2
1.321145012E1,1.113750041E-2,-7.383749634E-2,-7.562499959E-3
1.323145012E1,1.113750041E-2,-7.383749634E-2,-7.562499959E-3
1.325145012E1,2.227500081E-2,-6.696250290E-2,1.086249948E-2
1.327145012E1,2.227500081E-2,-6.696250290E-2,1.086249948E-2
1.329145012E1,2.227500081E-2,-6.696250290E-2,1.086249948E-2
1.331145012E1,2.969999984E-2,-1.306249946E-2,1.691249944E-2
1.333145012E1,2.969999984E-2,-1.306249946E-2,1.691249944E-2
1.335145012E1,2.199999988E-2,-3.382499889E-2,2.969999984E-2
1.337145012E1,2.199999988E-2,-3.382499889E-2,2.969999984E-2
1.339145012E1,3.093750030E-2,-7.273750007E-2,4.482499883E-2
1.341145012E1,3.093750030E-2,-7.273750007E-2,4.482499883E-2
1.343145012E1,3.093750030E-2,-7.273750007E-2,4.482499883E-2
1.345145012E1,5.403750017E-2,-3.451250121E-2,3.767500073E-2
1.347145012E1,5.403750017E-2,-3.451250121E-2,3.767500073E-2
1.349145012E1,5.403750017E-2,-3.451250121E-2,3.767500073E-2
1.351145012E1,5.403750017E-2,-3.451250121E-2,3.767500073E-2
1.353145012E1,5.403750017E-2,-3.451250121E-2,3.767500073E-2
1.355145012E1,1.993750036E-2,-3.739999980E-2,3.423750028E-2
1.357145012E1,1.993750036E-2,-3.739999980E-2,3.423750028E-2
1.359145012E1,2.021249942E-2,-2.337500080E-2,2.942499891E-2
1.361145012E1,2.021249942E-2,-2.337500080E-2,2.942499891E-2
1.363145012E1,1.649999991E-2,3.506249934E-2,2.103750035E-2
1.365145012E1,1.649999991E-2,3.506249934E-2,2.103750035E-2
1.367145012E1,1.649999991E-2,3.506249934E-2,2.103750035E-2
1.369145012E1,-2.612499986E-3,5.513750017E-2,1.017499994E-2
1.371145012E1,-2.612499986E-3,5.513750017E-2,1.017499994E-2
1.373145012E1,-1.828750037E-2,9.074999951E-3,3.712499980E-3
1.375145012E1,-1.828750037E-2,9.074999951E-3,3.712499980E-3
1.377145012E1,-1.828750037E-2,9.074999951E-3,3.712499980E-3
1.379145012E1,-1.347499993E-2,1.952499896E-2,2.474999987E-3
1.381145012E1,-1.347499993E-2,1.952499896E-2,2.474999987E-3
1.383145012E1,-1.347499993E-2,1.952499896E-2,2.474999987E-3
1.385145012E1,-1.347499993E-2,1.952499896E-2,2.474999987E-3
1.387145012E1,-1.347499993E-2,1.952499896E-2,2.474999987E-3
1.389145012E1,2.612499986E-3,2.296249941E-2,1.526249945E-2
1.391145012E1,2.612499986E-3,2.296249941E-2,1.526249945E-2
1.393145012E1,1.787500083E-2,-9.624999948E-4,2.227500081E-2
1.395145012E1,1.787500083E-2,-9.624999948E-4,2.227500081E-2
1.397145012E1,2.901249938E-2,-2.681249939E-2,3.698749840E-2
1.399145012E1,2.901249938E-2,-2.681249939E-2,3.698749840E-2
1.401145012E1,2.901249938E-2,-2.681249939E-2,3.698749840E-2
1.403145012E1,3.602499887E-2,-4.152499884E-2,2.612499893E-2
1.405145012E1,3.602499887E-2,-4.152499884E-2,2.612499893E-2
1.407145012E1,3.272499889E-2,-6.283749640E-2,1.361249946E-2
1.409145012E1,3.272499889E-2,-6.283749640E-2,1.361249946E-2
1.411145012E1,2.282499894E-2,-5.224999785E-2,4.537499975E-3
1.413145012E1,2.282499894E-2,-5.224999785E-2,4.537499975E-3
1.415145012E1,2.282499894E-2,-5.224999785E-2,4.537499975E-3
1.417145012E1,2.364999987E-2,-2.956249937E-2,2.337499987E-3
1.419145012E1,2.364999987E-2,-2.956249937E-2,2.337499987E-3
1.421145012E1,3.547500074E-2,-5.884999782E-2,2.887499984E-3
1.423145012E1,3.547500074E-2,-5.884999782E-2,2.887499984E-3
1.425145012E1,3.547500074E-2,-5.884999782E-2,2.887499984E-3
1.427145012E1,3.176249936E-2,-8.016250283E-2,1.099999994E-2
1.429145012E1,3.176249936E-2,-8.016250283E-2,1.099999994E-2
1.431145012E1,3.176249936E-2,-8.016250283E-2,1.099999994E-2
1.433145012E1,3.176249936E-2,-8.016250283E-2,1.099999994E-2
1.435145012E1,1.484999992E-2,-1.484999992E-2,5.774999969E-3
1.437145012E1,1.484999992E-2,-1.484999992E-2,5.774999969E-3
1.439145012E1,1.484999992E-2,-1.484999992E-2,5.774999969E-3
1.441145012E1,1.264999993E-2,-2.447500080E-2,1.567500085E-2
1.443145012E1,1.264999993E-2,-2.447500080E-2,1.567500085E-2
1.445145012E1,8.524999954E-3,-2.089999989E-2,1.814999990E-2
1.447145012E1,8.524999954E-3,-2.089999989E-2,1.814999990E-2
1.449145012E1,8.524999954E-3,-2.089999989E-2,1.814999990E-2
1.451145012E1,3.162499983E-3,3.712499980E-3,4.949999973E-3
1.453145012E1,3.162499983E-3,3.712499980E-3,4.949999973E-3
1.455145012E1,3.162499983E-3,3.712499980E-3,4.949999973E-3
1.457145012E1,3.162499983E-3,3.712499980E-3,4.949999973E-3
1.459145012E1,3.162499983E-3,3.712499980E-3,4.949999973E-3
1.461145012E1,1.924999990E-2,-8.043749630E-2,-4.949999973E-3
1.463145012E1,1.924999990E-2,-8.043749630E-2,-4.949999973E-3
1.465145012E1,7.974999957E-3,-3.299999982E-2,2.763750032E-2
1.467145012E1,7.974999957E-3,-3.299999982E-2,2.763750032E-2
1.469145012E1,-6.599999964E-3,2.887499984E-3,3.671250120E-2
1.471145012E1,-6.599999964E-3,2.887499984E-3,3.671250120E-2
1.473145012E1,-6.599999964E-3,2.887499984E-3,3.671250120E-2
1.475145012E1,-1.402499992E-2,1.498750038E-2,4.798749834E-2
1.477145012E1,-1.402499992E-2,1.498750038E-2,4.798749834E-2
1.479145012E1,-8.524999954E-3,3.506249934E-2,1.231999993E-1
1.481145012E1,-8.524999954E-3,3.506249934E-2,1.231999993E-1
1.483145012E1,-8.524999954E-3,3.506249934E-2,1.231999993E-1
1.485145012E1,7.699999958E-3,7.397499681E-2,1.388749927E-1
1.487145012E1,7.699999958E-3,7.397499681E-2,1.388749927E-1
1.489145012E1,2.282499894E-2,9.569999576E-2,6.173750013E-2
1.491145012E1,2.282499894E-2,9.569999576E-2,6.173750013E-2
1.493145012E1,2.282499894E-2,9.569999576E-2,6.173750013E-2
1.495145012E1,1.526249945E-2,4.702499881E-2,-1.691249944E-2
1.497145012E1,1.526249945E-2,4.702499881E-2,-1.691249944E-2
1.499145012E1,1.567500085E-2,2.846249938E-2,-2.131249942E-2
1.501145012E1,1.567500085E-2,2.846249938E-2,-2.131249942E-2
1.503145012E1,1.471249945E-2,7.562500238E-2,-4.455000162E-2
1.505145012E1,1.471249945E-2,7.562500238E-2,-4.455000162E-2
1.507145012E1,1.471249945E-2,7.562500238E-2,-4.455000162E-2
1.509145012E1,-2.777500078E-2,2.173874974E-1,-1.016125008E-1
1.511145012E1,-2.777500078E-2,2.173874974E-1,-1.016125008E-1
1.513145012E1,-6.173750013E-2,1.808124930E-1,-6.627500057E-2
1.515145012E1,-6.173750013E-2,1.808124930E-1,-6.627500057E-2
1.517145012E1,-5.747500062E-2,1.885125041E-1,-5.747500062E-2
1.519145012E1,-5.747500062E-2,1.885125041E-1,-5.747500062E-2
1.521145012E1,-5.747500062E-2,1.885125041E-1,-5.747500062E-2
1.523145012E1,-6.256250292E-2,2.048749924E-1,-1.088999957E-1
1.525145012E1,-6.256250292E-2,2.048749924E-1,-1.088999957E-1
1.527145012E1,-6.256250292E-2,2.048749924E-1,-1.088999957E-1
1.529145012E1,-6.256250292E-2,2.048749924E-1,-1.088999957E-1
1.531145012E1,-6.256250292E-2,2.048749924E-1,-1.088999957E-1
1.533145012E1,-6.297499686E-2,3.231250122E-2,-1.255374998E-1
1.535145012E1,-6.297499686E-2,3.231250122E-2,-1.255374998E-1
1.537145012E1,-4.386249930E-2,4.757500067E-2,-8.483749628E-2
1.539145012E1,-4.386249930E-2,4.757500067E-2,-8.483749628E-2
1.541145012E1,-4.441250116E-2,1.028499976E-1,-4.455000162E-2
1.543145012E1,-4.441250116E-2,1.028499976E-1,-4.455000162E-2
1.545145012E1,-4.441250116E-2,1.028499976E-1,-4.455000162E-2
1.547145012E1,-4.331250116E-2,9.418749809E-2,1.099999994E-2
1.549145012E1,-4.331250116E-2,9.418749809E-2,1.099999994E-2
1.551145012E1,-4.207500070E-2,5.444999784E-2,2.282499894E-2
1.553145012E1,-4.207500070E-2,5.444999784E-2,2.282499894E-2
1.555145012E1,-4.207500070E-2,5.444999784E-2,2.282499894E-2
1.557145012E1,-2.172499895E-2,1.251249947E-2,2.653750032E-2
1.559145012E1,-2.172499895E-2,1.251249947E-2,2.653750032E-2
1.561145012E1,2.474999987E-3,-2.529999986E-2,2.351249941E-2
1.563145012E1,2.474999987E-3,-2.529999986E-2,2.351249941E-2
1.565145012E1,2.474999987E-3,-2.529999986E-2,2.351249941E-2
1.567145012E1,8.112499490E-3,-6.077500060E-2,2.997500077E-2
1.569145012E1,8.112499490E-3,-6.077500060E-2,2.997500077E-2
1.571145012E1,1.732499897E-2,-1.252624989E-1,3.299999982E-2
1.573145012E1,1.732499897E-2,-1.252624989E-1,3.299999982E-2
1.575145012E1,1.732499897E-2,-1.252624989E-1,3.299999982E-2
1.577145012E1,2.034999989E-2,-1.332374960E-1,3.176249936E-2
1.579145012E1,2.034999989E-2,-1.332374960E-1,3.176249936E-2
1.581145012E1,1.168750040E-2,-1.331000030E-1,2.983750030E-2
1.583145012E1,1.168750040E-2,-1.331000030E-1,2.983750030E-2
1.585145012E1,1.594999991E-2,-1.776500046E-1,3.767500073E-2
1.587145012E1,1.594999991E-2,-1.776500046E-1,3.767500073E-2
1.589145012E1,1.594999991E-2,-1.776500046E-1,3.767500073E-2
1.591145012E1,2.158750035E-2,-1.490499973E-1,3.299999982E-2
1.593145012E1,2.158750035E-2,-1.490499973E-1,3.299999982E-2
1.595145012E1,1.938750036E-2,-1.252624989E-1,2.832499892E-2
1.597145012E1,1.938750036E-2,-1.252624989E-1,2.832499892E-2
1.599145012E1,1.938750036E-2,-1.252624989E-1,2.832499892E-2
1.601145012E1,1.319999993E-2,-1.863124967E-1,4.386249930E-2
1.603145012E1,1.319999993E-2,-1.863124967E-1,4.386249930E-2
1.605145012E1,1.237499993E-2,-1.768250018E-1,4.771250114E-2
1.607145012E1,1.237499993E-2,-1.768250018E-1,4.771250114E-2
1.609145012E1,6.599999964E-3,-1.671999991E-1,3.464999795E-2
1.611145012E1,6.599999964E-3,-1.671999991E-1,3.464999795E-2
1.613145012E1,6.599999964E-3,-1.671999991E-1,3.464999795E-2
1.615145012E1,-4.262499977E-3,-2.132624984E-1,2.612499893E-2
1.617145012E1,-4.262499977E-3,-2.132624984E-1,2.612499893E-2
1.619145012E1,-8.112499490E-3,-1.528999954E-1,1.677500084E-2
1.621145012E1,-8.112499490E-3,-1.528999954E-1,1.677500084E-2
1.623145012E1,-8.112499490E-3,-1.528999954E-1,1.677500084E-2
1.625145012E1,-2.131249942E-2,-4.853750020E-2,2.873750031E-2
1.627145012E1,-2.131249942E-2,-4.853750020E-2,2.873750031E-2
1.629145012E1,-2.131249942E-2,-4.853750020E-2,2.873750031E-2
1.631145012E1,-2.131249942E-2,-4.853750020E-2,2.873750031E-2
1.633145012E1,-3.946249932E-2,3.423750028E-2,3.011249937E-2
1.635145012E1,-3.946249932E-2,3.423750028E-2,3.011249937E-2
1.637145012E1,-3.946249932E-2,3.423750028E-2,3.011249937E-2
1.639145012E1,-5.046249926E-2,6.764999777E-2,1.388750039E-2
1.641145012E1,-5.046249926E-2,6.764999777E-2,1.388750039E-2
1.643145012E1,-5.527500063E-2,5.884999782E-2,-1.113750041E-2
1.645145012E1,-5.527500063E-2,5.884999782E-2,-1.113750041E-2
1.647145012E1,-5.527500063E-2,5.884999782E-2,-1.113750041E-2
1.649145012E1,-5.224999785E-2,2.227500081E-2,-3.561250120E-2
1.651145012E1,-5.224999785E-2,2.227500081E-2,-3.561250120E-2
1.653145012E1,-5.004999787E-2,-1.237499993E-2,-5.568749830E-2
1.655145012E1,-5.004999787E-2,-1.237499993E-2,-5.568749830E-2
1.657145012E1,-5.073750019E-2,-3.437500075E-2,-4.537500069E-2
1.659145012E1,-5.073750019E-2,-3.437500075E-2,-4.537500069E-2
1.661145012E1,-5.073750019E-2,-3.437500075E-2,-4.537500069E-2
1.663145012E1,-4.647500068E-2,-4.372499883E-2,-3.272499889E-2
1.665145012E1,-4.647500068E-2,-4.372499883E-2,-3.272499889E-2
1.667145012E1,-4.716249928E-2,-4.812499881E-2,-2.474999987E-2
1.669145012E1,-4.716249928E-2,-4.812499881E-2,-2.474999987E-2
1.671145012E1,-4.716249928E-2,-4.812499881E-2,-2.474999987E-2
1.673145012E1,-3.657500073E-2,-2.901249938E-2,-1.993750036E-2
1.675145012E1,-3.657500073E-2,-2.901249938E-2,-1.993750036E-2
1.677145012E1,-2.681249939E-2,-2.433750033E-2,-7.562499959E-3
1.679145012E1,-2.681249939E-2,-2.433750033E-2,-7.562499959E-3
1.681145012E1,-2.681249939E-2,-2.433750033E-2,-7.562499959E-3
1.683145012E1,-6.737499963E-3,-5.527500063E-2,1.044999994E-2
1.685145012E1,-6.737499963E-3,-5.527500063E-2,1.044999994E-2
1.687145012E1,1.814999990E-2,-8.483749628E-2,3.464999795E-2
1.689145012E1,1.814999990E-2,-8.483749628E-2,3.464999795E-2
1.691145012E1,5.706249923E-2,-1.282874942E-1,4.757500067E-2
1.693145012E1,5.706249923E-2,-1.282874942E-1,4.757500067E-2
1.695145012E1,5.706249923E-2,-1.282874942E-1,4.757500067E-2
1.697145012E1,7.919999957E-2,-1.764124930E-1,8.112499863E-2
1.699145012E1,7.919999957E-2,-1.764124930E-1,8.112499863E-2
1.701145012E1,9.019999951E-2,-1.775124967E-1,1.156374961E-1
1.703145012E1,9.019999951E-2,-1.775124967E-1,1.156374961E-1
1.705145012E1,9.019999951E-2,-1.775124967E-1,1.156374961E-1
1.707145012E1,8.057499677E-2,-1.331000030E-1,8.813749999E-2
1.709145012E1,8.057499677E-2,-1.331000030E-1,8.813749999E-2
1.711145012E1,6.159999967E-2,-1.182499975E-1,5.912499875E-2
1.713145012E1,6.159999967E-2,-1.182499975E-1,5.912499875E-2
1.715145012E1,4.386249930E-2,-1.142624989E-1,3.808749840E-2
1.717145012E1,4.386249930E-2,-1.142624989E-1,3.808749840E-2
1.719145012E1,4.386249930E-2,-1.142624989E-1,3.808749840E-2
1.721145012E1,3.396249935E-2,-8.951249719E-2,2.378750034E-2
1.723145012E1,3.396249935E-2,-8.951249719E-2,2.378750034E-2
1.725145012E1,3.863750026E-2,-5.252499878E-2,-1.374999993E-4
1.727145012E1,3.863750026E-2,-5.252499878E-2,-1.374999993E-4
1.729145012E1,3.863750026E-2,-5.252499878E-2,-1.374999993E-4
1.731145012E1,3.464999795E-2,-7.259999961E-2,-2.268750034E-2
1.733145012E1,3.464999795E-2,-7.259999961E-2,-2.268750034E-2
1.735145012E1,3.492499888E-2,-5.046249926E-2,-7.974999957E-3
1.737145012E1,3.492499888E-2,-5.046249926E-2,-7.974999957E-3
1.739145012E1,3.767500073E-2,-1.787499990E-3,-5.087499972E-3
1.741145012E1,3.767500073E-2,-1.787499990E-3,-5.087499972E-3
1.743145012E1,3.767500073E-2,-1.787499990E-3,-5.087499972E-3
1.745145012E1,2.488750033E-2,3.107500076E-2,-9.624999948E-3
1.747145012E1,2.488750033E-2,3.107500076E-2,-9.624999948E-3
1.749145012E1,3.987499978E-3,1.828750037E-2,-2.378750034E-2
1.751145012E1,3.987499978E-3,1.828750037E-2,-2.378750034E-2
1.753145012E1,3.987499978E-3,1.828750037E-2,-2.378750034E-2
1.755145012E1,-3.024999984E-2,-2.887499984E-3,-3.299999982E-3
1.757145012E1,-3.024999984E-2,-2.887499984E-3,-3.299999982E-3
1.759145012E1,-4.606249928E-2,5.568749830E-2,4.193750024E-2
1.761145012E1,-4.606249928E-2,5.568749830E-2,4.193750024E-2
1.763145012E1,-6.861250103E-2,9.143749624E-2,4.592499882E-2
1.765145012E1,-6.861250103E-2,9.143749624E-2,4.592499882E-2
1.767145012E1,-6.861250103E-2,9.143749624E-2,4.592499882E-2
1.769145012E1,-8.717499673E-2,1.267749965E-1,2.516249940E-2
1.771145012E1,-8.717499673E-2,1.267749965E-1,2.516249940E-2
1.773145012E1,-1.060125008E-1,1.681624949E-1,-2.584999986E-2
1.775145012E1,-1.060125008E-1,1.681624949E-1,-2.584999986E-2
1.777145012E1,-1.060125008E-1,1.681624949E-1,-2.584999986E-2
1.779145012E1,-1.314499974E-1,2.426874936E-1,-8.373750001E-2
1.781145012E1,-1.314499974E-1,2.426874936E-1,-8.373750001E-2
1.783145012E1,-1.313125044E-1,2.545124888E-1,-1.379124969E-1
1.785145012E1,-1.313125044E-1,2.545124888E-1,-1.379124969E-1
1.787145012E1,-1.313125044E-1,2.545124888E-1,-1.379124969E-1
1.787145012E1,-1.391499937E-1,2.355374992E-1,-1.589500010E-1
1.791145012E1,-1.391499937E-1,2.355374992E-1,-1.589500010E-1
1.793145012E1,-1.604624987E-1,2.110625058E-1,-1.240250021E-1
1.795145012E1,-1.604624987E-1,2.110625058E-1,-1.240250021E-1
1.797145012E1,-1.504250020E-1,2.311374992E-1,-7.837499678E-2
1.799145012E1,-1.504250020E-1,2.311374992E-1,-7.837499678E-2
1.801145012E1,-1.278750002E-1,2.154625058E-1,-4.675000161E-2
1.803145012E1,-1.278750002E-1,2.154625058E-1,-4.675000161E-2
1.805145012E1,-1.278750002E-1,2.154625058E-1,-4.675000161E-2
1.807145012E1,-1.343374997E-1,1.904374957E-1,-1.924999990E-2
1.809145012E1,-1.343374997E-1,1.904374957E-1,-1.924999990E-2
1.811145012E1,-1.343374997E-1,1.904374957E-1,-1.924999990E-2
1.813145012E1,-1.325500011E-1,2.077624947E-1,-5.087499972E-3
1.815145012E1,-1.325500011E-1,2.077624947E-1,-5.087499972E-3
1.817145012E1,-1.207249984E-1,2.076250017E-1,-1.141249947E-2
1.819145012E1,-1.207249984E-1,2.076250017E-1,-1.141249947E-2
1.821145012E1,-1.201749966E-1,2.091374993E-1,-2.969999984E-2
1.823145012E1,-1.201749966E-1,2.091374993E-1,-2.969999984E-2
1.825145012E1,-1.201749966E-1,2.091374993E-1,-2.969999984E-2
1.827145012E1,-1.105500013E-1,2.050125003E-1,-3.492499888E-2
1.829145012E1,-1.105500013E-1,2.050125003E-1,-3.492499888E-2
1.831145012E1,-1.105500013E-1,2.050125003E-1,-3.492499888E-2
1.833145012E1,-1.105500013E-1,2.050125003E-1,-3.492499888E-2
1.835145012E1,-1.105500013E-1,2.050125003E-1,-3.492499888E-2
1.837145012E1,-8.373750001E-2,1.251250058E-1,-1.773750037E-2
1.839145012E1,-8.373750001E-2,1.251250058E-1,-1.773750037E-2
1.841145012E1,-7.507500052E-2,1.127500013E-1,1.017499994E-2
1.843145012E1,-7.507500052E-2,1.127500013E-1,1.017499994E-2
1.845145012E1,-5.087500066E-2,5.761250108E-2,2.447500080E-2
1.847145012E1,-5.087500066E-2,5.761250108E-2,2.447500080E-2
1.849145012E1,-5.087500066E-2,5.761250108E-2,2.447500080E-2
1.851145012E1,-2.667500079E-2,1.787500083E-2,2.832499892E-2
1.853145012E1,-2.667500079E-2,1.787500083E-2,2.832499892E-2
1.855145012E1,-1.017499994E-2,3.011249937E-2,2.296249941E-2
1.857145012E1,-1.017499994E-2,3.011249937E-2,2.296249941E-2
1.859145012E1,-8.937500417E-3,1.416249946E-2,7.424999960E-3
1.861145012E1,-8.937500417E-3,1.416249946E-2,7.424999960E-3
1.863145012E1,-8.937500417E-3,1.416249946E-2,7.424999960E-3
1.865145012E1,2.199999988E-3,-3.492499888E-2,-1.099999994E-3
1.867145012E1,2.199999988E-3,-3.492499888E-2,-1.099999994E-3
1.869145012E1,-8.112499490E-3,-1.842499897E-2,-1.924999990E-3
1.871145012E1,-8.112499490E-3,-1.842499897E-2,-1.924999990E-3
1.873145012E1,-8.112499490E-3,-1.842499897E-2,-1.924999990E-3
1.875145012E1,-1.801249944E-2,2.942499891E-2,-9.624999948E-4
1.877145012E1,-1.801249944E-2,2.942499891E-2,-9.624999948E-4
1.879145012E1,-8.249999955E-3,2.612499893E-2,1.278750040E-2
1.881145012E1,-8.249999955E-3,2.612499893E-2,1.278750040E-2
1.883145012E1,-8.249999955E-3,2.612499893E-2,1.278750040E-2
1.885145012E1,1.663750038E-2,-1.237499993E-3,4.592499882E-2
1.887145012E1,1.663750038E-2,-1.237499993E-3,4.592499882E-2
1.889145012E1,1.319999993E-2,-3.024999984E-2,5.307500064E-2
1.891145012E1,1.319999993E-2,-3.024999984E-2,5.307500064E-2
1.893145012E1,2.612499986E-3,-9.212499857E-2,4.193750024E-2
1.895145012E1,2.612499986E-3,-9.212499857E-2,4.193750024E-2
1.897145012E1,2.612499986E-3,-9.212499857E-2,4.193750024E-2
1.899145012E1,1.099999994E-3,-1.890625060E-1,1.773750037E-2
1.901145012E1,1.099999994E-3,-1.890625060E-1,1.773750037E-2
1.903145012E1,-2.282499894E-2,-1.863124967E-1,-2.282499894E-2
1.905145012E1,-2.282499894E-2,-1.863124967E-1,-2.282499894E-2
1.907145012E1,-5.816249922E-2,-1.303499937E-1,-1.512499992E-2
1.909145012E1,-5.816249922E-2,-1.303499937E-1,-1.512499992E-2
1.911145012E1,-5.816249922E-2,-1.303499937E-1,-1.512499992E-2
1.913145012E1,-5.073750019E-2,-1.746249944E-2,7.012499962E-3
1.915145012E1,-5.073750019E-2,-1.746249944E-2,7.012499962E-3
1.917145012E1,-5.073750019E-2,-1.746249944E-2,7.012499962E-3
1.919145012E1,-3.849999979E-2,4.729999974E-2,4.015000165E-2
1.921145012E1,-3.849999979E-2,4.729999974E-2,4.015000165E-2
1.923145012E1,-4.784999788E-2,9.982500225E-2,3.533750027E-2
1.925145012E1,-4.784999788E-2,9.982500225E-2,3.533750027E-2
1.927145012E1,-1.038125008E-1,1.526249945E-2,-2.117500082E-2
1.929145012E1,-1.038125008E-1,1.526249945E-2,-2.117500082E-2
1.931145012E1,-1.038125008E-1,1.526249945E-2,-2.117500082E-2
1.933145012E1,-9.184999764E-2,-2.914999984E-2,-5.142499879E-2
1.935145012E1,-9.184999764E-2,-2.914999984E-2,-5.142499879E-2
1.937145012E1,-1.493249983E-1,-1.263625026E-1,-2.502499893E-2
1.939145012E1,-1.493249983E-1,-1.263625026E-1,-2.502499893E-2
1.941145012E1,-1.493249983E-1,-1.263625026E-1,-2.502499893E-2
1.943145012E1,-1.491875052E-1,-1.086250022E-1,-3.753750026E-2
1.945145012E1,-1.491875052E-1,-1.086250022E-1,-3.753750026E-2
1.947145012E1,-1.302125007E-1,-1.230624989E-1,-7.479999959E-2
1.949145012E1,-1.302125007E-1,-1.230624989E-1,-7.479999959E-2
1.951145012E1,-1.051874980E-1,-1.148125008E-1,3.629999980E-2
1.953145012E1,-1.051874980E-1,-1.148125008E-1,3.629999980E-2
1.955145012E1,-1.051874980E-1,-1.148125008E-1,3.629999980E-2
1.957145012E1,-4.812499881E-2,-3.533750027E-2,9.308750182E-2
1.959145012E1,-4.812499881E-2,-3.533750027E-2,9.308750182E-2
1.961145012E1,2.474999987E-3,8.827500045E-2,2.749999985E-4
1.963145012E1,2.474999987E-3,8.827500045E-2,2.749999985E-4
1.965145012E1,2.474999987E-3,8.827500045E-2,2.749999985E-4
1.967145012E1,-2.543750033E-2,6.655000150E-2,1.952499896E-2
1.969145012E1,-2.543750033E-2,6.655000150E-2,1.952499896E-2
1.971145012E1,-1.732499897E-2,6.366249919E-2,9.350000322E-2
1.973145012E1,-1.732499897E-2,6.366249919E-2,9.350000322E-2
1.975145012E1,3.739999980E-2,1.196250021E-1,3.547500074E-2
1.977145012E1,3.739999980E-2,1.196250021E-1,3.547500074E-2
1.979145012E1,3.739999980E-2,1.196250021E-1,3.547500074E-2
1.981145012E1,-1.086249948E-2,2.474999987E-2,-1.979999989E-2
1.983145012E1,-1.086249948E-2,2.474999987E-2,-1.979999989E-2
1.985145012E1,-4.963750020E-2,-5.623750016E-2,-3.162499983E-3
1.987145012E1,-4.963750020E-2,-5.623750016E-2,-3.162499983E-3
1.989145012E1,-4.963750020E-2,-5.623750016E-2,-3.162499983E-3
1.991145012E1,1.869999990E-2,-6.751249731E-2,-1.333750039E-2
1.993145012E1,1.869999990E-2,-6.751249731E-2,-1.333750039E-2
1.995145012E1,3.519999981E-2,-7.466249913E-2,-8.030000329E-2
1.997145012E1,3.519999981E-2,-7.466249913E-2,-8.030000329E-2
1.999145012E1,1.017499994E-2,-1.006499976E-1,-7.218749821E-2
2.001145012E1,1.017499994E-2,-1.006499976E-1,-7.218749821E-2
2.003145012E1,1.017499994E-2,-1.006499976E-1,-7.218749821E-2
2.005145012E1,2.213750035E-2,-8.346249908E-2,-3.822499886E-2
2.007145012E1,2.213750035E-2,-8.346249908E-2,-3.822499886E-2
2.009145012E1,4.372499883E-2,-3.423750028E-2,-5.637499969E-3
2.011145012E1,4.372499883E-2,-3.423750028E-2,-5.637499969E-3
2.013145012E1,4.372499883E-2,-3.423750028E-2,-5.637499969E-3
2.015145012E1,2.021249942E-2,-2.103750035E-2,3.299999982E-2
2.017145012E1,2.021249942E-2,-2.103750035E-2,3.299999982E-2
2.019145012E1,-2.186249942E-2,5.087499972E-3,3.822499886E-2
2.021145012E1,-2.186249942E-2,5.087499972E-3,3.822499886E-2
2.023145012E1,-2.186249942E-2,5.087499972E-3,3.822499886E-2
2.025145012E1,-3.052499890E-2,6.352499872E-2,2.928750031E-2
2.027145012E1,-3.052499890E-2,6.352499872E-2,2.928750031E-2
2.029145012E1,-3.052499890E-2,6.352499872E-2,2.928750031E-2
2.031145012E1,-3.052499890E-2,6.352499872E-2,2.928750031E-2
2.033145012E1,-8.263749629E-2,3.849999979E-2,5.362499971E-3
2.035145012E1,-8.263749629E-2,3.849999979E-2,5.362499971E-3
2.037145012E1,-8.263749629E-2,3.849999979E-2,5.362499971E-3
2.039145012E1,-6.215000153E-2,4.936249927E-2,-2.749999985E-3
2.041145012E1,-6.215000153E-2,4.936249927E-2,-2.749999985E-3
2.043145012E1,-5.142499879E-2,1.017499994E-2,5.637499969E-3
2.045145012E1,-5.142499879E-2,1.017499994E-2,5.637499969E-3
2.047145012E1,-4.853750020E-2,-1.924999990E-2,1.938750036E-2
2.049145012E1,-4.853750020E-2,-1.924999990E-2,1.938750036E-2
2.051145012E1,-4.853750020E-2,-1.924999990E-2,1.938750036E-2
2.053145012E1,-2.351249941E-2,-2.158750035E-2,4.537499975E-3
2.055145012E1,-2.351249941E-2,-2.158750035E-2,4.537499975E-3
2.057145012E1,-2.351249941E-2,-2.158750035E-2,4.537499975E-3
2.059145012E1,-2.351249941E-2,-2.158750035E-2,4.537499975E-3
2.061145012E1,-2.351249941E-2,-2.158750035E-2,4.537499975E-3
2.063145012E1,2.681249939E-2,2.227500081E-2,-4.303750023E-2
2.065145012E1,2.681249939E-2,2.227500081E-2,-4.303750023E-2
2.067145012E1,2.268750034E-2,6.215000153E-2,-6.324999966E-3
2.069145012E1,2.268750034E-2,6.215000153E-2,-6.324999966E-3
2.071145012E1,8.373750001E-2,1.691250056E-1,-2.612499986E-3
2.073145012E1,8.373750001E-2,1.691250056E-1,-2.612499986E-3
2.075145012E1,8.373750001E-2,1.691250056E-1,-2.612499986E-3
2.077145012E1,1.777874976E-1,2.913624942E-1,-4.069999978E-2
2.079145012E1,1.777874976E-1,2.913624942E-1,-4.069999978E-2
2.081145012E1,1.662375033E-1,2.565749884E-1,-8.359999955E-2
2.083145012E1,1.662375033E-1,2.565749884E-1,-8.359999955E-2
2.085145012E1,1.662375033E-1,2.565749884E-1,-8.359999955E-2
2.087145012E1,1.054624990E-1,1.370874941E-1,-7.177499682E-2
2.089145012E1,1.054624990E-1,1.370874941E-1,-7.177499682E-2
2.091145012E1,1.054624990E-1,1.370874941E-1,-7.177499682E-2
2.093145012E1,1.054624990E-1,1.370874941E-1,-7.177499682E-2
2.095145012E1,1.054624990E-1,1.370874941E-1,-7.177499682E-2
2.097145012E1,1.541374922E-1,1.149500012E-1,-2.722499892E-2
2.099145012E1,1.541374922E-1,1.149500012E-1,-2.722499892E-2
2.101145012E1,1.152250022E-1,-3.464999795E-2,1.787499990E-3
2.103145012E1,1.152250022E-1,-3.464999795E-2,1.787499990E-3
2.105145012E1,1.161874980E-1,-1.245749965E-1,3.437499981E-3
2.107145012E1,1.161874980E-1,-1.245749965E-1,3.437499981E-3
2.109145012E1,1.161874980E-1,-1.245749965E-1,3.437499981E-3
2.111145012E1,1.604624987E-1,-1.168750003E-1,6.022499874E-2
2.113145012E1,1.604624987E-1,-1.168750003E-1,6.022499874E-2
2.115145012E1,1.344749928E-1,-1.746249944E-1,8.126249909E-2
2.117145012E1,1.344749928E-1,-1.746249944E-1,8.126249909E-2
2.119145012E1,2.322375029E-1,-5.995000154E-2,3.162499890E-2
2.121145012E1,2.322375029E-1,-5.995000154E-2,3.162499890E-2
2.123145012E1,2.322375029E-1,-5.995000154E-2,3.162499890E-2
2.125145012E1,2.436500043E-1,-1.539999992E-2,-4.619999975E-2
2.127145012E1,2.436500043E-1,-1.539999992E-2,-4.619999975E-2
2.129145012E1,2.436500043E-1,-1.539999992E-2,-4.619999975E-2
2.131145012E1,2.349874973E-1,7.576250285E-2,-2.571249940E-2
2.133145012E1,2.349874973E-1,7.576250285E-2,-2.571249940E-2
2.135145012E1,2.337500006E-1,6.435000151E-2,-6.462500244E-2
2.137145012E1,2.337500006E-1,6.435000151E-2,-6.462500244E-2
2.139145012E1,2.389750034E-1,-3.533750027E-2,-1.490499973E-1
2.141145012E1,2.389750034E-1,-3.533750027E-2,-1.490499973E-1
2.143145012E1,2.389750034E-1,-3.533750027E-2,-1.490499973E-1
2.145145012E1,2.026749998E-1,-1.421750039E-1,-6.159999967E-2
2.147145012E1,2.026749998E-1,-1.421750039E-1,-6.159999967E-2
2.149145012E1,2.367749959E-1,-9.817499667E-2,1.952499896E-2
2.151145012E1,2.367749959E-1,-9.817499667E-2,1.952499896E-2
2.153145012E1,2.413125038E-1,-1.963499933E-1,1.828750037E-2
2.155145012E1,2.413125038E-1,-1.963499933E-1,1.828750037E-2
2.157145012E1,2.413125038E-1,-1.963499933E-1,1.828750037E-2
2.159145012E1,2.315499932E-1,-2.942500114E-1,2.227500081E-2
2.161145012E1,2.315499932E-1,-2.942500114E-1,2.227500081E-2
2.163145012E1,2.315499932E-1,-2.942500114E-1,2.227500081E-2
2.165145012E1,2.315499932E-1,-2.942500114E-1,2.227500081E-2
2.167145012E1,2.315499932E-1,-2.942500114E-1,2.227500081E-2
2.169145012E1,2.315499932E-1,-2.942500114E-1,2.227500081E-2
2.171145012E1,2.315499932E-1,-2.942500114E-1,2.227500081E-2
2.173145012E1,1.443749964E-1,-5.662249923E-1,-4.166249931E-2
2.175145012E1,1.443749964E-1,-5.662249923E-1,-4.166249931E-2
2.177145012E1,1.568875015E-1,-5.409250259E-1,-1.141249947E-2
2.179145012E1,1.568875015E-1,-5.409250259E-1,-1.141249947E-2
2.181145012E1,1.568875015E-1,-5.409250259E-1,-1.141249947E-2
2.183145012E1,2.486000061E-1,-2.690874934E-1,-3.602499887E-2
2.185145012E1,2.486000061E-1,-2.690874934E-1,-3.602499887E-2
2.187145012E1,2.025374919E-1,-2.364999950E-1,1.649999991E-3
2.189145012E1,2.025374919E-1,-2.364999950E-1,1.649999991E-3
2.191145012E1,1.667875051E-1,-1.896124929E-1,9.624999762E-2
2.193145012E1,1.667875051E-1,-1.896124929E-1,9.624999762E-2
2.195145012E1,1.667875051E-1,-1.896124929E-1,9.624999762E-2
2.197145012E1,1.667875051E-1,-1.896124929E-1,9.624999762E-2
2.199145012E1,1.667875051E-1,-1.896124929E-1,9.624999762E-2
2.201145012E1,1.667875051E-1,-1.896124929E-1,9.624999762E-2
2.203145012E1,1.067000031E-1,-2.011625022E-1,8.910000324E-2
2.205145012E1,1.067000031E-1,-2.011625022E-1,8.910000324E-2
2.207145012E1,9.624999948E-4,-4.388999939E-1,6.998749822E-2
2.209145012E1,9.624999948E-4,-4.388999939E-1,6.998749822E-2
2.211145012E1,6.049999967E-3,-4.255625010E-1,-1.430000067E-1
2.213145012E1,6.049999967E-3,-4.255625010E-1,-1.430000067E-1
2.215145012E1,6.049999967E-3,-4.255625010E-1,-1.430000067E-1
2.217145012E1,2.502499893E-2,-3.657499850E-1,-2.180749923E-1
2.219145012E1,2.502499893E-2,-3.657499850E-1,-2.180749923E-1
2.221145012E1,3.602499887E-2,-2.813250124E-1,-1.495999992E-1
2.223145012E1,3.602499887E-2,-2.813250124E-1,-1.495999992E-1
2.225145012E1,3.519999981E-2,-1.740749925E-1,-2.928750031E-2
2.227145012E1,3.519999981E-2,-1.740749925E-1,-2.928750031E-2
2.229145012E1,3.519999981E-2,-1.740749925E-1,-2.928750031E-2
2.231145012E1,3.519999981E-2,-1.740749925E-1,-2.928750031E-2
2.233145012E1,3.519999981E-2,-1.740749925E-1,-2.928750031E-2
2.235145012E1,3.519999981E-2,-1.740749925E-1,-2.928750031E-2
2.237145012E1,3.519999981E-2,-1.740749925E-1,-2.928750031E-2
2.239145012E1,3.519999981E-2,-1.740749925E-1,-2.928750031E-2
2.241145012E1,4.922499880E-2,-3.946249932E-2,9.776250273E-2
2.243145012E1,4.922499880E-2,-3.946249932E-2,9.776250273E-2
2.245145012E1,-4.674999975E-3,-1.428624988E-1,1.111000031E-1
2.247145012E1,-4.674999975E-3,-1.428624988E-1,1.111000031E-1
2.249145012E1,-4.674999975E-3,-1.428624988E-1,1.111000031E-1
2.251145012E1,2.667500079E-2,-5.115000159E-2,-2.433750033E-2
2.253145012E1,2.667500079E-2,-5.115000159E-2,-2.433750033E-2
2.255145012E1,4.619999975E-2,2.089999989E-2,-9.735000134E-2
2.257145012E1,4.619999975E-2,2.089999989E-2,-9.735000134E-2
2.259145012E1,2.488750033E-2,8.387500420E-3,-3.533750027E-2
2.261145012E1,2.488750033E-2,8.387500420E-3,-3.533750027E-2
2.263145012E1,2.488750033E-2,8.387500420E-3,-3.533750027E-2
2.265145012E1,1.347499993E-2,1.196249947E-2,1.237499993E-2
2.267145012E1,1.347499993E-2,1.196249947E-2,1.237499993E-2
2.269145012E1,1.347499993E-2,1.196249947E-2,1.237499993E-2
2.269145012E1,4.069999978E-2,4.688749835E-2,-3.657500073E-2
2.273145012E1,4.069999978E-2,4.688749835E-2,-3.657500073E-2
2.275145012E1,5.389999971E-2,7.356250286E-2,-7.590000331E-2
2.277145012E1,5.389999971E-2,7.356250286E-2,-7.590000331E-2
2.279145012E1,5.389999971E-2,7.356250286E-2,-7.590000331E-2
2.281145012E1,5.389999971E-2,7.356250286E-2,-7.590000331E-2
2.283145012E1,3.533750027E-2,7.136250287E-2,-1.333750039E-2
2.285145012E1,3.533750027E-2,7.136250287E-2,-1.333750039E-2
2.287145012E1,3.533750027E-2,7.136250287E-2,-1.333750039E-2
2.289145012E1,-1.552374959E-1,-8.470000327E-2,2.776125073E-1
2.291145012E1,-1.552374959E-1,-8.470000327E-2,2.776125073E-1
2.293145012E1,-3.056625128E-1,-1.845249981E-1,2.282499969E-1
2.295145012E1,-3.056625128E-1,-1.845249981E-1,2.282499969E-1
2.297145012E1,-3.145999908E-1,-1.123374999E-1,2.169750035E-1
2.299145012E1,-3.145999908E-1,-1.123374999E-1,2.169750035E-1
2.301145012E1,-3.145999908E-1,-1.123374999E-1,2.169750035E-1
2.303145012E1,-4.336749911E-1,-2.601499856E-1,4.518249929E-1
2.305145012E1,-4.336749911E-1,-2.601499856E-1,4.518249929E-1
2.307145012E1,-4.336749911E-1,-2.601499856E-1,4.518249929E-1
2.309145012E1,-4.096125066E-1,-1.308999956E-1,3.926999867E-1
2.311145012E1,-4.096125066E-1,-1.308999956E-1,3.926999867E-1
2.313145012E1,-2.642749846E-1,2.243999988E-1,3.114374876E-1
2.315145012E1,-2.642749846E-1,2.243999988E-1,3.114374876E-1
2.317145012E1,-2.642749846E-1,2.243999988E-1,3.114374876E-1
2.319145012E1,-2.642749846E-1,2.243999988E-1,3.114374876E-1
2.321145012E1,-2.642749846E-1,2.243999988E-1,3.114374876E-1
2.323145012E1,-3.557125032E-1,1.600500047E-1,3.077250123E-1
2.325145012E1,-3.557125032E-1,1.600500047E-1,3.077250123E-1
2.327145012E1,-2.639999986E-1,3.844499886E-1,9.061250091E-2
2.329145012E1,-2.639999986E-1,3.844499886E-1,9.061250091E-2
2.331145012E1,-2.639999986E-1,3.844499886E-1,9.061250091E-2
2.333145012E1,-3.095124960E-1,3.631374836E-1,-2.337499987E-3
2.335145012E1,-3.095124960E-1,3.631374836E-1,-2.337499987E-3
2.337145012E1,-5.171374679E-1,4.523750022E-2,-3.464999795E-2
2.339145012E1,-5.171374679E-1,4.523750022E-2,-3.464999795E-2
2.341145012E1,-5.171374679E-1,4.523750022E-2,-3.464999795E-2
2.343145012E1,-5.171374679E-1,4.523750022E-2,-3.464999795E-2
2.345145012E1,-5.171374679E-1,4.523750022E-2,-3.464999795E-2
2.347145012E1,-2.809124887E-1,3.167999983E-1,-4.138749838E-2
2.349145012E1,-2.809124887E-1,3.167999983E-1,-4.138749838E-2
2.351145012E1,-4.178625047E-1,1.993750036E-2,1.021625027E-1
2.353145012E1,-4.178625047E-1,1.993750036E-2,1.021625027E-1
2.355145012E1,-4.178625047E-1,1.993750036E-2,1.021625027E-1
2.357145012E1,-4.345000088E-1,-9.102500230E-2,7.521250099E-2
2.359145012E1,-4.345000088E-1,-9.102500230E-2,7.521250099E-2
2.361145012E1,-3.441624939E-1,-6.379999965E-2,2.557500079E-2
2.363145012E1,-3.441624939E-1,-6.379999965E-2,2.557500079E-2
2.365145012E1,-2.908124924E-1,-9.707500041E-2,-1.526249945E-1
2.367145012E1,-2.908124924E-1,-9.707500041E-2,-1.526249945E-1
2.369145012E1,-2.908124924E-1,-9.707500041E-2,-1.526249945E-1
2.371145012E1,-2.575374842E-1,-4.166249931E-2,-2.710124850E-1
2.373145012E1,-2.575374842E-1,-4.166249931E-2,-2.710124850E-1
2.375145012E1,-1.843875051E-1,1.740749925E-1,-3.062124848E-1
2.377145012E1,-1.843875051E-1,1.740749925E-1,-3.062124848E-1
2.379145012E1,-1.843875051E-1,1.740749925E-1,-3.062124848E-1
2.381145012E1,-4.207500070E-2,3.711124957E-1,-2.574000061E-1
2.383145012E1,-4.207500070E-2,3.711124957E-1,-2.574000061E-1
2.385145012E1,8.318749815E-2,4.538874924E-1,-2.028124928E-1
2.387145012E1,8.318749815E-2,4.538874924E-1,-2.028124928E-1
2.389145012E1,8.318749815E-2,4.538874924E-1,-2.028124928E-1
2.391145012E1,1.115124971E-1,4.908750057E-1,-4.729999974E-2
2.393145012E1,1.115124971E-1,4.908750057E-1,-4.729999974E-2
2.395145012E1,7.507500052E-2,3.610749841E-1,1.627999991E-1
2.397145012E1,7.507500052E-2,3.610749841E-1,1.627999991E-1
2.399145012E1,-8.524999954E-3,1.124750003E-1,2.330625057E-1
2.401145012E1,-8.524999954E-3,1.124750003E-1,2.330625057E-1
2.403145012E1,-8.524999954E-3,1.124750003E-1,2.330625057E-1
2.405145012E1,-1.187999994E-1,-1.471250057E-1,2.052875012E-1
2.407145012E1,-1.187999994E-1,-1.471250057E-1,2.052875012E-1
2.409145012E1,-6.435000151E-2,-6.104999781E-2,1.088999957E-1
2.411145012E1,-6.435000151E-2,-6.104999781E-2,1.088999957E-1
2.413145012E1,-6.435000151E-2,-6.104999781E-2,1.088999957E-1
2.415145012E1,4.991250113E-2,1.175625026E-1,-1.108250022E-1
2.417145012E1,4.991250113E-2,1.175625026E-1,-1.108250022E-1
2.419145012E1,6.008749828E-2,1.326874942E-1,-2.855874896E-1
2.421145012E1,6.008749828E-2,1.326874942E-1,-2.855874896E-1
2.423145012E1,6.503749639E-2,1.230624989E-1,-3.971000016E-1
2.425145012E1,6.503749639E-2,1.230624989E-1,-3.971000016E-1
2.427145012E1,6.503749639E-2,1.230624989E-1,-3.971000016E-1
2.429145012E1,1.731124967E-1,1.894749999E-1,-1.875499934E-1
2.431145012E1,1.731124967E-1,1.894749999E-1,-1.875499934E-1
2.433145012E1,1.047749966E-1,5.733750015E-2,8.057499677E-2
2.435145012E1,1.047749966E-1,5.733750015E-2,8.057499677E-2
2.437145012E1,4.262499884E-2,-5.829999968E-2,8.236250281E-2
2.439145012E1,4.262499884E-2,-5.829999968E-2,8.236250281E-2
2.441145012E1,4.262499884E-2,-5.829999968E-2,8.236250281E-2
2.443145012E1,5.967500061E-2,-9.735000134E-2,1.436875015E-1
2.445145012E1,5.967500061E-2,-9.735000134E-2,1.436875015E-1
2.447145012E1,5.967500061E-2,-9.735000134E-2,1.436875015E-1
2.449145012E1,5.967500061E-2,-9.735000134E-2,1.436875015E-1
2.451145012E1,5.967500061E-2,-9.735000134E-2,1.436875015E-1
2.453145012E1,2.391124964E-1,2.134000063E-1,-3.849999979E-3
2.455145012E1,2.391124964E-1,2.134000063E-1,-3.849999979E-3
2.457145012E1,2.330625057E-1,1.164624989E-1,-1.240250021E-1
2.459145012E1,2.330625057E-1,1.164624989E-1,-1.240250021E-1
2.461145012E1,2.330625057E-1,1.164624989E-1,-1.240250021E-1
2.463145012E1,1.694000065E-1,-4.262499977E-3,1.856249943E-2
2.465145012E1,1.694000065E-1,-4.262499977E-3,1.856249943E-2
2.467145012E1,1.647250056E-1,-5.912499968E-3,1.527625024E-1
2.469145012E1,1.647250056E-1,-5.912499968E-3,1.527625024E-1
2.471145012E1,2.242625058E-1,9.350000322E-2,1.725624949E-1
2.473145012E1,2.242625058E-1,9.350000322E-2,1.725624949E-1
2.475145012E1,2.242625058E-1,9.350000322E-2,1.725624949E-1
2.477145012E1,2.040500045E-1,6.476250291E-2,1.611499935E-1
2.479145012E1,2.040500045E-1,6.476250291E-2,1.611499935E-1
2.481145012E1,2.275625020E-1,9.844999760E-2,7.122500241E-2
2.483145012E1,2.275625020E-1,9.844999760E-2,7.122500241E-2
2.485145012E1,2.275625020E-1,9.844999760E-2,7.122500241E-2
2.487145012E1,2.579500079E-1,1.502874941E-1,-1.042250022E-1
2.489145012E1,2.579500079E-1,1.502874941E-1,-1.042250022E-1
2.491145012E1,2.125750035E-1,9.281250089E-2,-1.143999994E-1
2.493145012E1,2.125750035E-1,9.281250089E-2,-1.143999994E-1
2.495145012E1,2.125750035E-1,9.281250089E-2,-1.143999994E-1
2.497145012E1,1.790249944E-1,-3.574999981E-3,-1.170125008E-1
2.499145012E1,1.790249944E-1,-3.574999981E-3,-1.170125008E-1
2.501145012E1,1.835625023E-1,-4.193750024E-2,-1.240250021E-1
2.503145012E1,1.835625023E-1,-4.193750024E-2,-1.240250021E-1
2.505145012E1,1.903000027E-1,3.244999796E-2,-8.593750000E-2
2.507145012E1,1.903000027E-1,3.244999796E-2,-8.593750000E-2
2.509145012E1,1.832875013E-1,6.710000336E-2,-5.293750018E-2
2.511145012E1,1.832875013E-1,6.710000336E-2,-5.293750018E-2
2.513145012E1,1.832875013E-1,6.710000336E-2,-5.293750018E-2
2.515145012E1,2.283875048E-1,5.376249924E-2,-3.396249935E-2
2.517145012E1,2.283875048E-1,5.376249924E-2,-3.396249935E-2
2.519145012E1,2.283875048E-1,5.376249924E-2,-3.396249935E-2
2.521145012E1,2.587749958E-1,1.292500049E-1,-3.313750029E-2
2.523145012E1,2.587749958E-1,1.292500049E-1,-3.313750029E-2
2.525145012E1,2.633124888E-1,1.893374920E-1,-1.388750039E-2
2.527145012E1,2.633124888E-1,1.893374920E-1,-1.388750039E-2
2.529145012E1,2.633124888E-1,1.893374920E-1,-1.388750039E-2
2.531145012E1,2.633124888E-1,1.893374920E-1,-1.388750039E-2
2.533145012E1,2.633124888E-1,1.893374920E-1,-1.388750039E-2
2.535145012E1,2.600125074E-1,9.707500041E-2,-1.127499994E-2
2.537145012E1,2.600125074E-1,9.707500041E-2,-1.127499994E-2
2.539145012E1,1.715999991E-1,-1.141249985E-1,-3.739999980E-2
2.541145012E1,1.715999991E-1,-1.141249985E-1,-3.739999980E-2
2.543145012E1,-1.883750036E-2,-4.552625120E-1,4.262499884E-2
2.545145012E1,-1.883750036E-2,-4.552625120E-1,4.262499884E-2
2.547145012E1,-1.883750036E-2,-4.552625120E-1,4.262499884E-2
2.549145012E1,-9.459999949E-2,-5.222250223E-1,2.846249938E-2
2.551145012E1,-9.459999949E-2,-5.222250223E-1,2.846249938E-2
2.553145012E1,-9.459999949E-2,-5.222250223E-1,2.846249938E-2
2.555145012E1,-9.459999949E-2,-5.222250223E-1,2.846249938E-2
2.557145012E1,-9.459999949E-2,-5.222250223E-1,2.846249938E-2
2.559145012E1,2.516249940E-2,-1.443749964E-1,-2.956249937E-2
2.561145012E1,2.516249940E-2,-1.443749964E-1,-2.956249937E-2
2.563145012E1,4.111250117E-2,3.561250120E-2,-5.555000156E-2
2.565145012E1,4.111250117E-2,3.561250120E-2,-5.555000156E-2
2.567145012E1,4.111250117E-2,3.561250120E-2,-5.555000156E-2
2.569145012E1,9.624999762E-2,2.862749994E-1,-1.747625023E-1
2.571145012E1,9.624999762E-2,2.862749994E-1,-1.747625023E-1
2.573145012E1,8.181250095E-2,3.096500039E-1,-7.851249725E-2
2.575145012E1,8.181250095E-2,3.096500039E-1,-7.851249725E-2
2.577145012E1,8.181250095E-2,3.096500039E-1,-7.851249725E-2
2.579145012E1,3.052499890E-2,2.825624943E-1,9.886249900E-2
2.581145012E1,3.052499890E-2,2.825624943E-1,9.886249900E-2
2.583145012E1,-2.268750034E-2,2.039124966E-1,5.596249923E-2
2.585145012E1,-2.268750034E-2,2.039124966E-1,5.596249923E-2
2.587145012E1,-1.189374998E-1,8.841250092E-2,7.479999959E-2
2.589145012E1,-1.189374998E-1,8.841250092E-2,7.479999959E-2
2.591145012E1,-1.189374998E-1,8.841250092E-2,7.479999959E-2
2.593145012E1,-1.828749925E-1,3.258749843E-2,1.113749966E-1
2.595145012E1,-1.828749925E-1,3.258749843E-2,1.113749966E-1
2.597145012E1,-2.364999950E-1,-1.170125008E-1,3.286249936E-2
2.599145012E1,-2.364999950E-1,-1.170125008E-1,3.286249936E-2
2.601145012E1,-2.364999950E-1,-1.170125008E-1,3.286249936E-2
2.603145012E1,-2.202749997E-1,-1.557874978E-1,-1.208624989E-1
2.605145012E1,-2.202749997E-1,-1.557874978E-1,-1.208624989E-1
2.607145012E1,-1.694000065E-1,-5.568749830E-2,-7.342500240E-2
2.609145012E1,-1.694000065E-1,-5.568749830E-2,-7.342500240E-2
2.611145012E1,-1.216875017E-1,5.582499877E-2,-2.337499987E-3
2.613145012E1,-1.216875017E-1,5.582499877E-2,-2.337499987E-3
2.615145012E1,-1.216875017E-1,5.582499877E-2,-2.337499987E-3
2.617145012E1,-9.501250088E-2,1.435499936E-1,-4.399999976E-3
2.619145012E1,-9.501250088E-2,1.435499936E-1,-4.399999976E-3
2.621145012E1,-3.918749839E-2,2.876499891E-1,3.148749843E-2
2.623145012E1,-3.918749839E-2,2.876499891E-1,3.148749843E-2
2.625145012E1,-3.918749839E-2,2.876499891E-1,3.148749843E-2
2.627145012E1,-7.039999962E-2,2.561624944E-1,7.053750008E-2
2.629145012E1,-7.039999962E-2,2.561624944E-1,7.053750008E-2
2.631145012E1,-2.037750036E-1,2.117500082E-2,2.681249939E-2
2.633145012E1,-2.037750036E-1,2.117500082E-2,2.681249939E-2
2.635145012E1,-1.423124969E-1,1.897500083E-2,-8.071249723E-2
2.637145012E1,-1.423124969E-1,1.897500083E-2,-8.071249723E-2
2.639145012E1,-1.423124969E-1,1.897500083E-2,-8.071249723E-2
2.641145012E1,-8.002500236E-2,6.297499686E-2,-2.639999986E-2
2.643145012E1,-8.002500236E-2,6.297499686E-2,-2.639999986E-2
2.645145012E1,-7.699999958E-2,9.377499670E-2,8.731249720E-2
2.647145012E1,-7.699999958E-2,9.377499670E-2,8.731249720E-2
2.649145012E1,-1.029874980E-1,5.816249922E-2,7.424999960E-3
2.651145012E1,-1.029874980E-1,5.816249922E-2,7.424999960E-3
2.653145012E1,-1.029874980E-1,5.816249922E-2,7.424999960E-3
2.655145012E1,-5.981250107E-2,6.270000339E-2,-7.768750191E-2
2.657145012E1,-5.981250107E-2,6.270000339E-2,-7.768750191E-2
2.659145012E1,-5.981250107E-2,6.270000339E-2,-7.768750191E-2
2.661145012E1,-5.981250107E-2,6.270000339E-2,-7.768750191E-2
2.663145012E1,-5.981250107E-2,6.270000339E-2,-7.768750191E-2
2.665145012E1,-7.699999958E-3,1.357125044E-1,-3.808749840E-2
2.667145012E1,-7.699999958E-3,1.357125044E-1,-3.808749840E-2
2.669145012E1,4.042499885E-2,1.000999957E-1,-1.212750003E-1
2.671145012E1,4.042499885E-2,1.000999957E-1,-1.212750003E-1
2.673145012E1,4.042499885E-2,1.000999957E-1,-1.212750003E-1
2.675145012E1,8.084999770E-2,1.051874980E-1,-2.007500082E-2
2.677145012E1,8.084999770E-2,1.051874980E-1,-2.007500082E-2
2.679145012E1,7.163749635E-2,1.626625061E-1,2.201374918E-1
2.681145012E1,7.163749635E-2,1.626625061E-1,2.201374918E-1
2.683145012E1,7.163749635E-2,1.626625061E-1,2.201374918E-1
2.685145012E1,7.548750192E-2,1.509750038E-1,1.748999953E-1
2.687145012E1,7.548750192E-2,1.509750038E-1,1.748999953E-1
2.689145012E1,9.033749998E-2,1.044999957E-1,1.379124969E-1
2.691145012E1,9.033749998E-2,1.044999957E-1,1.379124969E-1
2.693145012E1,1.112374961E-1,7.878749818E-2,9.102500230E-2
2.695145012E1,1.112374961E-1,7.878749818E-2,9.102500230E-2
2.697145012E1,1.112374961E-1,7.878749818E-2,9.102500230E-2
2.699145012E1,9.281250089E-2,4.991250113E-2,3.093750030E-2
2.701145012E1,9.281250089E-2,4.991250113E-2,3.093750030E-2
2.703145012E1,5.829999968E-2,-1.691249944E-2,-4.716249928E-2
2.705145012E1,5.829999968E-2,-1.691249944E-2,-4.716249928E-2
2.707145012E1,5.829999968E-2,-1.691249944E-2,-4.716249928E-2
2.709145012E1,1.484999992E-2,-1.003749967E-1,-3.767500073E-2
2.711145012E1,1.484999992E-2,-1.003749967E-1,-3.767500073E-2
2.713145012E1,1.979999989E-2,-7.039999962E-2,-3.189999983E-2
2.715145012E1,1.979999989E-2,-7.039999962E-2,-3.189999983E-2
2.717145012E1,3.698749840E-2,2.791249938E-2,-8.249999955E-4
2.719145012E1,3.698749840E-2,2.791249938E-2,-8.249999955E-4
2.721145012E1,3.698749840E-2,2.791249938E-2,-8.249999955E-4
2.723145012E1,2.571249940E-2,7.136250287E-2,1.025749967E-1
2.725145012E1,2.571249940E-2,7.136250287E-2,1.025749967E-1
2.727145012E1,4.702499881E-2,3.616249934E-2,8.098749816E-2
2.729145012E1,4.702499881E-2,3.616249934E-2,8.098749816E-2
2.731145012E1,4.179999977E-2,5.059999973E-2,5.197500065E-2
2.733145012E1,4.179999977E-2,5.059999973E-2,5.197500065E-2
2.735145012E1,4.179999977E-2,5.059999973E-2,5.197500065E-2
2.737145012E1,1.581249945E-2,6.599999964E-2,3.327500075E-2
2.739145012E1,1.581249945E-2,6.599999964E-2,3.327500075E-2
2.741145012E1,3.849999979E-3,4.193750024E-2,1.539999992E-2
2.743145012E1,3.849999979E-3,4.193750024E-2,1.539999992E-2
2.745145012E1,3.849999979E-3,4.193750024E-2,1.539999992E-2
2.747145012E1,-4.124999978E-4,3.396249935E-2,-6.366249919E-2
2.749145012E1,-4.124999978E-4,3.396249935E-2,-6.366249919E-2
2.751145012E1,-9.899999946E-3,3.987500072E-2,-4.743750021E-2
2.753145012E1,-9.899999946E-3,3.987500072E-2,-4.743750021E-2
2.755145012E1,-9.899999946E-3,3.987500072E-2,-4.743750021E-2
2.757145012E1,-1.086249948E-2,2.172499895E-2,-3.079999983E-2
2.759145012E1,-1.086249948E-2,2.172499895E-2,-3.079999983E-2
2.761145012E1,-5.637499969E-3,5.458749831E-2,-1.911249943E-2
2.763145012E1,-5.637499969E-3,5.458749831E-2,-1.911249943E-2
2.765145012E1,-3.299999982E-3,5.871250108E-2,-7.149999961E-3
2.767145012E1,-3.299999982E-3,5.871250108E-2,-7.149999961E-3
2.769145012E1,-3.299999982E-3,5.871250108E-2,-7.149999961E-3
2.771145012E1,-1.828750037E-2,2.846249938E-2,-9.624999948E-4
2.773145012E1,-1.828750037E-2,2.846249938E-2,-9.624999948E-4
2.775145012E1,-3.066249937E-2,3.478749841E-2,-2.062499989E-3
2.777145012E1,-3.066249937E-2,3.478749841E-2,-2.062499989E-3
2.779145012E1,-3.066249937E-2,3.478749841E-2,-2.062499989E-3
2.781145012E1,-2.502499893E-2,4.138749838E-2,3.024999984E-3
2.783145012E1,-2.502499893E-2,4.138749838E-2,3.024999984E-3
2.785145012E1,-3.217500076E-2,-1.374999993E-2,9.624999948E-4
2.787145012E1,-3.217500076E-2,-1.374999993E-2,9.624999948E-4
2.789145012E1,-2.364999987E-2,-6.503749639E-2,-9.899999946E-3
2.791145012E1,-2.364999987E-2,-6.503749639E-2,-9.899999946E-3
2.793145012E1,-2.364999987E-2,-6.503749639E-2,-9.899999946E-3
2.795145012E1,-1.292499993E-2,-5.059999973E-2,-4.537499975E-3
2.797145012E1,-1.292499993E-2,-5.059999973E-2,-4.537499975E-3
2.799145012E1,-1.347499993E-2,-4.688749835E-2,3.712499980E-3
2.801145012E1,-1.347499993E-2,-4.688749835E-2,3.712499980E-3
2.803145012E1,-1.801249944E-2,-5.444999784E-2,6.874999963E-4
2.805145012E1,-1.801249944E-2,-5.444999784E-2,6.874999963E-4
2.807145012E1,-1.801249944E-2,-5.444999784E-2,6.874999963E-4
2.809145012E1,-2.364999987E-2,-3.396249935E-2,-3.987499978E-3
2.811145012E1,-2.364999987E-2,-3.396249935E-2,-3.987499978E-3
2.813145012E1,-2.364999987E-2,-3.396249935E-2,-3.987499978E-3
2.815145012E1,-4.111250117E-2,-1.374999993E-4,-3.121249937E-2
2.817145012E1,-4.111250117E-2,-1.374999993E-4,-3.121249937E-2
2.819145012E1,-4.193750024E-2,9.899999946E-3,-5.513750017E-2
2.821145012E1,-4.193750024E-2,9.899999946E-3,-5.513750017E-2
2.823145012E1,-4.413750023E-2,-5.912499968E-3,-5.169999972E-2
2.825145012E1,-4.413750023E-2,-5.912499968E-3,-5.169999972E-2
2.827145012E1,-4.413750023E-2,-5.912499968E-3,-5.169999972E-2
2.829145012E1,-4.702499881E-2,6.462499965E-3,-4.647500068E-2
2.831145012E1,-4.702499881E-2,6.462499965E-3,-4.647500068E-2
2.833145012E1,-3.533750027E-2,2.749999985E-2,-4.867500067E-2
2.835145012E1,-3.533750027E-2,2.749999985E-2,-4.867500067E-2
2.837145012E1,-2.529999986E-2,2.997500077E-2,-3.341250122E-2
2.839145012E1,-2.529999986E-2,2.997500077E-2,-3.341250122E-2
2.841145012E1,-2.529999986E-2,2.997500077E-2,-3.341250122E-2
2.843145012E1,-2.254999988E-2,-6.874999963E-3,-2.461249940E-2
2.845145012E1,-2.254999988E-2,-6.874999963E-3,-2.461249940E-2
2.847145012E1,-2.254999988E-2,-6.874999963E-3,-2.461249940E-2
2.849145012E1,-2.254999988E-2,-6.874999963E-3,-2.461249940E-2
2.851145012E1,-2.254999988E-2,-6.874999963E-3,-2.461249940E-2
2.853145012E1,-1.251249947E-2,-3.932499886E-2,-5.224999785E-2
2.855145012E1,-1.251249947E-2,-3.932499886E-2,-5.224999785E-2
2.857145012E1,-1.182499994E-2,-4.097500071E-2,-3.712499887E-2
2.859145012E1,-1.182499994E-2,-4.097500071E-2,-3.712499887E-2
2.861145012E1,-1.182499994E-2,-4.097500071E-2,-3.712499887E-2
2.863145012E1,-3.712499980E-3,-2.914999984E-2,-7.149999961E-3
2.865145012E1,-3.712499980E-3,-2.914999984E-2,-7.149999961E-3
2.867145012E1,-3.712499980E-3,-9.487500414E-3,2.378750034E-2
2.869145012E1,-3.712499980E-3,-9.487500414E-3,2.378750034E-2
2.871145012E1,-1.154999994E-2,-1.677500084E-2,2.474999987E-2
2.871145012E1,-1.154999994E-2,-1.677500084E-2,2.474999987E-2
2.875145012E1,-1.154999994E-2,-1.677500084E-2,2.474999987E-2
2.877145012E1,-1.539999992E-2,-1.911249943E-2,4.537500069E-2
2.879145012E1,-1.539999992E-2,-1.911249943E-2,4.537500069E-2
2.881145012E1,-6.599999964E-3,-3.863750026E-2,5.651250109E-2
2.883145012E1,-6.599999964E-3,-3.863750026E-2,5.651250109E-2
2.885145012E1,-6.599999964E-3,-3.863750026E-2,5.651250109E-2
2.887145012E1,-1.512499992E-3,-6.696250290E-2,4.523750022E-2
2.889145012E1,-1.512499992E-3,-6.696250290E-2,4.523750022E-2
2.891145012E1,1.072499994E-2,-8.923749626E-2,3.299999982E-2
2.893145012E1,1.072499994E-2,-8.923749626E-2,3.299999982E-2
2.895145012E1,2.901249938E-2,-7.452499866E-2,2.309999987E-2
2.897145012E1,2.901249938E-2,-7.452499866E-2,2.309999987E-2
2.899145012E1,2.901249938E-2,-7.452499866E-2,2.309999987E-2
2.901145012E1,3.753750026E-2,-6.476250291E-2,1.484999992E-2
2.903145012E1,3.753750026E-2,-6.476250291E-2,1.484999992E-2
2.905145012E1,4.441250116E-2,-1.068374962E-1,1.636249945E-2
2.907145012E1,4.441250116E-2,-1.068374962E-1,1.636249945E-2
2.909145012E1,4.441250116E-2,-1.068374962E-1,1.636249945E-2
2.911145012E1,4.028749838E-2,-1.247124970E-1,2.227500081E-2
2.913145012E1,4.028749838E-2,-1.247124970E-1,2.227500081E-2
2.915145012E1,4.784999788E-2,-1.325500011E-1,3.355000168E-2
2.917145012E1,4.784999788E-2,-1.325500011E-1,3.355000168E-2
2.919145012E1,7.493750006E-2,-1.324124932E-1,5.307500064E-2
2.921145012E1,7.493750006E-2,-1.324124932E-1,5.307500064E-2
2.923145012E1,7.493750006E-2,-1.324124932E-1,5.307500064E-2
2.925145012E1,6.957499683E-2,-1.359875053E-1,6.379999965E-2
2.927145012E1,6.957499683E-2,-1.359875053E-1,6.379999965E-2
2.929145012E1,5.953750014E-2,-1.156374961E-1,6.242499873E-2
2.931145012E1,5.953750014E-2,-1.156374961E-1,6.242499873E-2
2.933145012E1,5.953750014E-2,-1.156374961E-1,6.242499873E-2
2.935145012E1,6.627500057E-2,-7.975000143E-2,6.448750198E-2
2.937145012E1,6.627500057E-2,-7.975000143E-2,6.448750198E-2
2.939145012E1,5.623750016E-2,-2.488750033E-2,4.606249928E-2
2.941145012E1,5.623750016E-2,-2.488750033E-2,4.606249928E-2
2.943145012E1,5.623750016E-2,-2.488750033E-2,4.606249928E-2
2.945145012E1,3.217500076E-2,-2.351249941E-2,2.007500082E-2
2.947145012E1,3.217500076E-2,-2.351249941E-2,2.007500082E-2
2.949145012E1,2.997500077E-2,-5.802499875E-2,5.637499969E-3
2.951145012E1,2.997500077E-2,-5.802499875E-2,5.637499969E-3
2.953145012E1,4.606249928E-2,-5.403750017E-2,1.512499992E-3
2.955145012E1,4.606249928E-2,-5.403750017E-2,1.512499992E-3
2.957145012E1,4.606249928E-2,-5.403750017E-2,1.512499992E-3
2.959145012E1,3.437500075E-2,-7.026249915E-2,-7.149999961E-3
2.961145012E1,3.437500075E-2,-7.026249915E-2,-7.149999961E-3
2.963145012E1,2.351249941E-2,-1.214125007E-1,3.849999979E-3
2.965145012E1,2.351249941E-2,-1.214125007E-1,3.849999979E-3
2.967145012E1,2.351249941E-2,-1.214125007E-1,3.849999979E-3
2.969145012E1,2.241249941E-2,-1.086250022E-1,3.368749842E-2
2.971145012E1,2.241249941E-2,-1.086250022E-1,3.368749842E-2
2.973145012E1,1.842499897E-2,-6.751249731E-2,4.193750024E-2
2.975145012E1,1.842499897E-2,-6.751249731E-2,4.193750024E-2
2.977145012E1,1.264999993E-2,-5.568749830E-2,3.286249936E-2
2.979145012E1,1.264999993E-2,-5.568749830E-2,3.286249936E-2
2.981145012E1,1.264999993E-2,-5.568749830E-2,3.286249936E-2
2.983145012E1,6.874999963E-3,-2.144999988E-2,2.956249937E-2
2.985145012E1,6.874999963E-3,-2.144999988E-2,2.956249937E-2
2.987145012E1,1.196249947E-2,5.266249925E-2,1.429999992E-2
2.989145012E1,1.196249947E-2,5.266249925E-2,1.429999992E-2
2.991145012E1,4.124999978E-3,3.684999794E-2,3.712499980E-3
2.993145012E1,4.124999978E-3,3.684999794E-2,3.712499980E-3
2.995145012E1,4.124999978E-3,3.684999794E-2,3.712499980E-3
2.997145012E1,-1.237499993E-3,4.743750021E-2,-5.499999970E-4
2.999145012E1,-1.237499993E-3,4.743750021E-2,-5.499999970E-4
3.001145012E1,-1.237499993E-3,4.743750021E-2,-5.499999970E-4
3.003145012E1,-1.237499993E-3,4.743750021E-2,-5.499999970E-4
3.005145012E1,-1.237499993E-3,4.743750021E-2,-5.499999970E-4
3.007145012E1,5.637499969E-3,4.771250114E-2,-8.524999954E-3
3.009145012E1,5.637499969E-3,4.771250114E-2,-8.524999954E-3
3.011145012E1,4.812499974E-3,2.942499891E-2,-6.874999963E-3
3.013145012E1,4.812499974E-3,2.942499891E-2,-6.874999963E-3
3.015145012E1,4.812499974E-3,2.942499891E-2,-6.874999963E-3
3.017145012E1,9.624999948E-4,2.956249937E-2,-1.718750037E-2
3.019145012E1,9.624999948E-4,2.956249937E-2,-1.718750037E-2
3.021145012E1,-2.351249941E-2,5.513750017E-2,-4.455000162E-2
3.023145012E1,-2.351249941E-2,5.513750017E-2,-4.455000162E-2
3.025145012E1,-4.826249927E-2,9.872499853E-2,-4.564999789E-2
3.027145012E1,-4.826249927E-2,9.872499853E-2,-4.564999789E-2
3.029145012E1,-4.826249927E-2,9.872499853E-2,-4.564999789E-2
3.031145012E1,-6.077500060E-2,1.494625062E-1,-3.492499888E-2
3.033145012E1,-6.077500060E-2,1.494625062E-1,-3.492499888E-2
3.035145012E1,-6.352499872E-2,2.128500044E-1,-2.749999985E-2
3.037145012E1,-6.352499872E-2,2.128500044E-1,-2.749999985E-2
3.039145012E1,-6.352499872E-2,2.128500044E-1,-2.749999985E-2
3.041145012E1,-5.582499877E-2,2.268749923E-1,-1.374999993E-2
3.043145012E1,-5.582499877E-2,2.268749923E-1,-1.374999993E-2
3.045145012E1,-3.244999796E-2,2.107875049E-1,2.461249940E-2
3.047145012E1,-3.244999796E-2,2.107875049E-1,2.461249940E-2
3.049145012E1,-1.801249944E-2,1.530375034E-1,2.364999987E-2
3.051145012E1,-1.801249944E-2,1.530375034E-1,2.364999987E-2
3.053145012E1,-1.801249944E-2,1.530375034E-1,2.364999987E-2
3.055145012E1,-1.223750040E-2,1.038125008E-1,1.113750041E-2
3.057145012E1,-1.223750040E-2,1.038125008E-1,1.113750041E-2
3.059145012E1,-1.223750040E-2,1.038125008E-1,1.113750041E-2
3.061145012E1,-1.223750040E-2,1.038125008E-1,1.113750041E-2
3.063145012E1,-1.223750040E-2,1.038125008E-1,1.113750041E-2
3.065145012E1,-5.224999972E-3,3.918749839E-2,-2.351249941E-2
3.067145012E1,-5.224999972E-3,3.918749839E-2,-2.351249941E-2
3.069145012E1,-1.237499993E-3,2.928750031E-2,-1.209999993E-2
3.071145012E1,-1.237499993E-3,2.928750031E-2,-1.209999993E-2
3.073145012E1,-1.237499993E-3,2.928750031E-2,-1.209999993E-2
3.075145012E1,4.124999978E-4,6.311249733E-2,3.987499978E-3
3.077145012E1,4.124999978E-4,6.311249733E-2,3.987499978E-3
3.079145012E1,-6.462499965E-3,6.572499871E-2,-4.674999975E-3
3.081145012E1,-6.462499965E-3,6.572499871E-2,-4.674999975E-3
3.083145012E1,-2.034999989E-2,3.135000169E-2,-2.997500077E-2
3.085145012E1,-2.034999989E-2,3.135000169E-2,-2.997500077E-2
3.087145012E1,-2.034999989E-2,3.135000169E-2,-2.997500077E-2
3.089145012E1,-1.938750036E-2,4.564999789E-2,-2.804999985E-2
3.091145012E1,-1.938750036E-2,4.564999789E-2,-2.804999985E-2
3.093145012E1,-1.622499898E-2,4.427500069E-2,-5.417500064E-2
3.095145012E1,-1.622499898E-2,4.427500069E-2,-5.417500064E-2
3.097145012E1,-1.622499898E-2,4.427500069E-2,-5.417500064E-2
3.099145012E1,-4.028749838E-2,9.624999948E-3,-6.077500060E-2
3.101145012E1,-4.028749838E-2,9.624999948E-3,-6.077500060E-2
3.103145012E1,-3.643750027E-2,4.977500066E-2,-3.877500072E-2
3.105145012E1,-3.643750027E-2,4.977500066E-2,-3.877500072E-2
3.107145012E1,-2.433750033E-2,7.438749820E-2,1.691249944E-2
3.107145012E1,-2.433750033E-2,7.438749820E-2,1.691249944E-2
3.111145012E1,-2.433750033E-2,7.438749820E-2,1.691249944E-2
3.113145012E1,-1.773750037E-2,7.507500052E-2,1.704999991E-2
3.115145012E1,-1.773750037E-2,7.507500052E-2,1.704999991E-2
3.117145012E1,-1.333750039E-2,5.541250110E-2,3.024999984E-3
3.119145012E1,-1.333750039E-2,5.541250110E-2,3.024999984E-3
3.121145012E1,-1.333750039E-2,5.541250110E-2,3.024999984E-3
3.123145012E1,3.739999980E-2,6.916250288E-2,9.349999949E-3
3.125145012E1,3.739999980E-2,6.916250288E-2,9.349999949E-3
3.127145012E1,5.719999969E-2,3.575000167E-2,9.487500414E-3
3.129145012E1,5.719999969E-2,3.575000167E-2,9.487500414E-3
3.131145012E1,4.661250114E-2,-4.124999978E-4,-6.874999963E-4
3.133145012E1,4.661250114E-2,-4.124999978E-4,-6.874999963E-4
3.135145012E1,4.661250114E-2,-4.124999978E-4,-6.874999963E-4
3.137145012E1,5.431250110E-2,2.474999987E-3,1.787499990E-3
3.139145012E1,5.431250110E-2,2.474999987E-3,1.787499990E-3
3.141145012E1,4.702499881E-2,4.015000165E-2,2.433750033E-2
3.143145012E1,4.702499881E-2,4.015000165E-2,2.433750033E-2
3.145145012E1,4.702499881E-2,4.015000165E-2,2.433750033E-2
3.147145012E1,2.364999987E-2,4.399999976E-2,9.762499481E-3
3.149145012E1,2.364999987E-2,4.399999976E-2,9.762499481E-3
3.151145012E1,2.199999988E-2,9.762499481E-3,9.624999948E-3
3.153145012E1,2.199999988E-2,9.762499481E-3,9.624999948E-3
3.155145012E1,2.777500078E-2,-4.179999977E-2,2.887500077E-2
3.157145012E1,2.777500078E-2,-4.179999977E-2,2.887500077E-2
3.159145012E1,2.777500078E-2,-4.179999977E-2,2.887500077E-2
3.161145012E1,1.842499897E-2,-2.323750034E-2,1.484999992E-2
3.163145012E1,1.842499897E-2,-2.323750034E-2,1.484999992E-2
3.165145012E1,7.699999958E-3,-8.662499487E-3,-8.937500417E-3
3.167145012E1,7.699999958E-3,-8.662499487E-3,-8.937500417E-3
3.169145012E1,7.699999958E-3,-8.662499487E-3,-8.937500417E-3
3.171145012E1,-1.388750039E-2,-4.111250117E-2,-8.112499490E-3
3.173145012E1,-1.388750039E-2,-4.111250117E-2,-8.112499490E-3
3.175145012E1,-2.433750033E-2,-2.007500082E-2,-3.162499983E-3
3.177145012E1,-2.433750033E-2,-2.007500082E-2,-3.162499983E-3
3.179145012E1,-2.433750033E-2,-2.007500082E-2,-3.162499983E-3
3.181145012E1,-1.471249945E-2,-3.437499981E-3,-1.031249948E-2
3.183145012E1,-1.471249945E-2,-3.437499981E-3,-1.031249948E-2
3.185145012E1,-7.974999957E-3,-7.562499959E-3,-8.524999954E-3
3.187145012E1,-7.974999957E-3,-7.562499959E-3,-8.524999954E-3
3.189145012E1,5.499999970E-4,-3.657500073E-2,-1.374999993E-3
3.191145012E1,5.499999970E-4,-3.657500073E-2,-1.374999993E-3
3.193145012E1,5.499999970E-4,-3.657500073E-2,-1.374999993E-3
3.195145012E1,2.172499895E-2,-1.159124970E-1,1.374999993E-2
3.197145012E1,2.172499895E-2,-1.159124970E-1,1.374999993E-2
3.199145012E1,2.268750034E-2,-6.641250104E-2,7.012499962E-3
3.201145012E1,2.268750034E-2,-6.641250104E-2,7.012499962E-3
3.203145012E1,2.268750034E-2,-6.641250104E-2,7.012499962E-3
3.205145012E1,1.223750040E-2,-3.203750029E-2,3.987499978E-3
3.207145012E1,1.223750040E-2,-3.203750029E-2,3.987499978E-3
3.209145012E1,5.499999970E-3,-1.058750041E-2,1.237499993E-3
3.211145012E1,5.499999970E-3,-1.058750041E-2,1.237499993E-3
3.213145012E1,5.499999970E-3,-1.058750041E-2,1.237499993E-3
3.215145012E1,5.499999970E-3,-1.058750041E-2,1.237499993E-3
3.217145012E1,5.499999970E-3,-1.058750041E-2,1.237499993E-3
3.219145012E1,1.883750036E-2,3.616249934E-2,-1.237499993E-2
3.221145012E1,1.883750036E-2,3.616249934E-2,-1.237499993E-2
3.223145012E1,5.499999970E-4,4.826249927E-2,-1.168750040E-2
3.225145012E1,5.499999970E-4,4.826249927E-2,-1.168750040E-2
3.227145012E1,5.499999970E-4,4.826249927E-2,-1.168750040E-2
3.229145012E1,-8.249999955E-3,2.007500082E-2,-1.801249944E-2
3.231145012E1,-8.249999955E-3,2.007500082E-2,-1.801249944E-2
3.233145012E1,-1.017499994E-2,1.127499994E-2,-4.042499885E-2
3.235145012E1,-1.017499994E-2,1.127499994E-2,-4.042499885E-2
3.237145012E1,-2.887500077E-2,1.457499992E-2,-2.901249938E-2
3.239145012E1,-2.887500077E-2,1.457499992E-2,-2.901249938E-2
3.241145012E1,-2.887500077E-2,1.457499992E-2,-2.901249938E-2
3.243145012E1,-2.818750031E-2,1.581249945E-2,-1.182499994E-2
3.245145012E1,-2.818750031E-2,1.581249945E-2,-1.182499994E-2
3.247145012E1,-2.818750031E-2,1.581249945E-2,-1.182499994E-2
3.249145012E1,-2.818750031E-2,1.581249945E-2,-1.182499994E-2
3.251145012E1,-2.818750031E-2,1.581249945E-2,-1.182499994E-2
3.253145012E1,-1.141249947E-2,1.141249947E-2,1.649999991E-3
3.255145012E1,-1.141249947E-2,1.141249947E-2,1.649999991E-3
3.257145012E1,-1.512499992E-2,1.182499994E-2,2.791249938E-2
3.259145012E1,-1.512499992E-2,1.182499994E-2,2.791249938E-2
3.261145012E1,-1.237499993E-2,3.904999793E-2,4.784999788E-2
3.263145012E1,-1.237499993E-2,3.904999793E-2,4.784999788E-2
3.265145012E1,-1.237499993E-2,3.904999793E-2,4.784999788E-2
3.267145012E1,-1.374999993E-2,4.248749837E-2,2.749999985E-2
3.269145012E1,-1.374999993E-2,4.248749837E-2,2.749999985E-2
3.271145012E1,-2.928750031E-2,-8.524999954E-3,7.012499962E-3
3.273145012E1,-2.928750031E-2,-8.524999954E-3,7.012499962E-3
3.275145012E1,-2.062499896E-2,-2.199999988E-2,-1.209999993E-2
3.277145012E1,-2.062499896E-2,-2.199999988E-2,-1.209999993E-2
3.279145012E1,-2.062499896E-2,-2.199999988E-2,-1.209999993E-2
3.281145012E1,-2.172499895E-2,-4.496249929E-2,-1.113750041E-2
3.283145012E1,-2.172499895E-2,-4.496249929E-2,-1.113750041E-2
3.285145012E1,-2.172499895E-2,-4.496249929E-2,-1.113750041E-2
3.287145012E1,-2.268750034E-2,-1.020250022E-1,-4.537499975E-3
3.289145012E1,-2.268750034E-2,-1.020250022E-1,-4.537499975E-3
3.291145012E1,-1.154999994E-2,-7.617499679E-2,-1.196249947E-2
3.293145012E1,-1.154999994E-2,-7.617499679E-2,-1.196249947E-2
3.295145012E1,-1.209999993E-2,-5.829999968E-2,-1.333750039E-2
3.297145012E1,-1.209999993E-2,-5.829999968E-2,-1.333750039E-2
3.299145012E1,-1.209999993E-2,-5.829999968E-2,-1.333750039E-2
3.301145012E1,-2.199999988E-2,-5.472499877E-2,-3.987499978E-3
3.303145012E1,-2.199999988E-2,-5.472499877E-2,-3.987499978E-3
3.305145012E1,-1.306249946E-2,-5.389999971E-2,2.062499989E-3
3.307145012E1,-1.306249946E-2,-5.389999971E-2,2.062499989E-3
3.309145012E1,-2.158750035E-2,-2.502499893E-2,-6.187499966E-3
3.311145012E1,-2.158750035E-2,-2.502499893E-2,-6.187499966E-3
3.313145012E1,-2.158750035E-2,-2.502499893E-2,-6.187499966E-3
3.315145012E1,-2.639999986E-2,-2.529999986E-2,-1.773750037E-2
3.317145012E1,-2.639999986E-2,-2.529999986E-2,-1.773750037E-2
3.319145012E1,-2.639999986E-2,-2.529999986E-2,-1.773750037E-2
3.321145012E1,-2.639999986E-2,-2.529999986E-2,-1.773750037E-2
3.323145012E1,-2.639999986E-2,-2.529999986E-2,-1.773750037E-2
3.325145012E1,-2.571249940E-2,-2.887500077E-2,-3.698749840E-2
3.327145012E1,-2.571249940E-2,-2.887500077E-2,-3.698749840E-2
3.329145012E1,-2.846249938E-2,3.093750030E-2,-2.914999984E-2
3.331145012E1,-2.846249938E-2,3.093750030E-2,-2.914999984E-2
3.333145012E1,-2.846249938E-2,3.093750030E-2,-2.914999984E-2
3.335145012E1,-3.437499981E-3,8.318749815E-2,-2.296249941E-2
3.337145012E1,-3.437499981E-3,8.318749815E-2,-2.296249941E-2
3.339145012E1,-1.278750040E-2,7.095000148E-2,-2.254999988E-2
3.341145012E1,-1.278750040E-2,7.095000148E-2,-2.254999988E-2
3.343145012E1,-2.186249942E-2,6.435000151E-2,-1.608750038E-2
3.345145012E1,-2.186249942E-2,6.435000151E-2,-1.608750038E-2
3.347145012E1,-2.186249942E-2,6.435000151E-2,-1.608750038E-2
3.349145012E1,-3.712499980E-3,6.655000150E-2,-4.399999976E-3
3.351145012E1,-3.712499980E-3,6.655000150E-2,-4.399999976E-3
3.353145012E1,1.251249947E-2,6.256250292E-2,-1.924999990E-3
3.355145012E1,1.251249947E-2,6.256250292E-2,-1.924999990E-3
3.357145012E1,1.251249947E-2,6.256250292E-2,-1.924999990E-3
3.359145012E1,0.000000000E0,0.000000000E0,0.000000000E0
3.361145012E1,0.000000000E0,0.000000000E0,0.000000000E0
3.363145012E1,9.349999949E-3,-1.498750038E-2,1.099999994E-3
3.365145012E1,9.349999949E-3,-1.498750038E-2,1.099999994E-3
3.367145012E1,5.018749833E-2,1.732499897E-2,-6.874999963E-4
3.369145012E1,5.018749833E-2,1.732499897E-2,-6.874999963E-4
3.371145012E1,5.018749833E-2,1.732499897E-2,-6.874999963E-4
3.373145012E1,3.726249933E-2,-1.237499993E-3,5.087499972E-3
3.375145012E1,3.726249933E-2,-1.237499993E-3,5.087499972E-3
3.377145012E1,2.186249942E-2,-6.599999964E-3,2.186249942E-2
3.379145012E1,2.186249942E-2,-6.599999964E-3,2.186249942E-2
3.381145012E1,2.034999989E-2,-3.121249937E-2,1.718750037E-2
3.383145012E1,2.034999989E-2,-3.121249937E-2,1.718750037E-2
3.385145012E1,2.034999989E-2,-3.121249937E-2,1.718750037E-2
3.387145012E1,2.034999989E-2,-3.121249937E-2,1.718750037E-2
3.389145012E1,2.034999989E-2,-3.121249937E-2,1.718750037E-2
3.391145012E1,2.034999989E-2,-3.121249937E-2,1.718750037E-2
3.393145012E1,1.691249944E-2,-1.759999990E-2,3.464999795E-2
3.395145012E1,1.691249944E-2,-1.759999990E-2,3.464999795E-2
3.397145012E1,8.249999955E-4,-3.327500075E-2,2.928750031E-2
3.399145012E1,8.249999955E-4,-3.327500075E-2,2.928750031E-2
3.401145012E1,1.141249947E-2,-4.179999977E-2,1.691249944E-2
3.403145012E1,1.141249947E-2,-4.179999977E-2,1.691249944E-2
3.405145012E1,1.141249947E-2,-4.179999977E-2,1.691249944E-2
3.407145012E1,8.799999952E-3,-2.392499894E-2,1.058750041E-2
3.409145012E1,8.799999952E-3,-2.392499894E-2,1.058750041E-2
3.411145012E1,4.537499975E-3,-2.557500079E-2,2.144999988E-2
3.413145012E1,4.537499975E-3,-2.557500079E-2,2.144999988E-2
3.415145012E1,1.787500083E-2,-7.782500237E-2,9.899999946E-3
3.417145012E1,1.787500083E-2,-7.782500237E-2,9.899999946E-3
3.419145012E1,1.787500083E-2,-7.782500237E-2,9.899999946E-3
3.421145012E1,1.031249948E-2,-6.022499874E-2,-1.003750041E-2
3.423145012E1,1.031249948E-2,-6.022499874E-2,-1.003750041E-2
3.425145012E1,1.031249948E-2,-6.022499874E-2,-1.003750041E-2
3.427145012E1,1.031249948E-2,-6.022499874E-2,-1.003750041E-2
3.429145012E1,1.031249948E-2,-6.022499874E-2,-1.003750041E-2
3.431145012E1,-2.749999985E-3,-1.911249943E-2,-3.162499983E-3
3.433145012E1,-2.749999985E-3,-1.911249943E-2,-3.162499983E-3
3.435145012E1,-1.718750037E-2,2.859999985E-2,-2.461249940E-2
3.437145012E1,-1.718750037E-2,2.859999985E-2,-2.461249940E-2
3.439145012E1,-1.718750037E-2,2.859999985E-2,-2.461249940E-2
3.441145012E1,-4.111250117E-2,8.524999768E-2,-1.402499992E-2
3.443145012E1,-4.111250117E-2,8.524999768E-2,-1.402499992E-2
3.445145012E1,-2.447500080E-2,7.892499864E-2,-5.499999970E-4
3.447145012E1,-2.447500080E-2,7.892499864E-2,-5.499999970E-4
3.449145012E1,-2.062499896E-2,4.881250113E-2,-4.262499977E-3
3.451145012E1,-2.062499896E-2,4.881250113E-2,-4.262499977E-3
3.453145012E1,-2.062499896E-2,4.881250113E-2,-4.262499977E-3
3.455145012E1,-2.914999984E-2,6.655000150E-2,-3.162499983E-3
3.457145012E1,-2.914999984E-2,6.655000150E-2,-3.162499983E-3
3.459145012E1,-9.074999951E-3,8.181250095E-2,1.374999993E-2
3.461145012E1,-9.074999951E-3,8.181250095E-2,1.374999993E-2
3.463145012E1,-9.074999951E-3,8.181250095E-2,1.374999993E-2
3.465145012E1,-3.437499981E-3,4.688749835E-2,6.737499963E-3
3.467145012E1,-3.437499981E-3,4.688749835E-2,6.737499963E-3
3.469145012E1,-2.034999989E-2,4.124999791E-2,3.574999981E-3
3.471145012E1,-2.034999989E-2,4.124999791E-2,3.574999981E-3
3.473145012E1,-7.287499961E-3,5.719999969E-2,9.349999949E-3
3.475145012E1,-7.287499961E-3,5.719999969E-2,9.349999949E-3
3.477145012E1,-7.287499961E-3,5.719999969E-2,9.349999949E-3
3.479145012E1,8.799999952E-3,2.873750031E-2,-7.149999961E-3
3.481145012E1,8.799999952E-3,2.873750031E-2,-7.149999961E-3
3.483145012E1,3.299999982E-3,-3.987500072E-2,-6.242499873E-2
3.485145012E1,3.299999982E-3,-3.987500072E-2,-6.242499873E-2
3.487145012E1,-7.699999958E-3,-3.066249937E-2,-4.083750024E-2
3.489145012E1,-7.699999958E-3,-3.066249937E-2,-4.083750024E-2
3.491145012E1,-7.699999958E-3,-3.066249937E-2,-4.083750024E-2
3.493145012E1,5.637499969E-3,8.249999955E-4,-3.121249937E-2
3.495145012E1,5.637499969E-3,8.249999955E-4,-3.121249937E-2
3.497145012E1,5.637499969E-3,8.249999955E-4,-3.121249937E-2
3.499145012E1,4.674999975E-3,-7.012499962E-3,-5.252499878E-2
3.501145012E1,4.674999975E-3,-7.012499962E-3,-5.252499878E-2
3.503145012E1,-1.086249948E-2,-6.874999963E-3,-2.543750033E-2
3.505145012E1,-1.086249948E-2,-6.874999963E-3,-2.543750033E-2
3.507145012E1,-1.086249948E-2,-6.874999963E-3,-2.543750033E-2
3.509145012E1,-1.086249948E-2,-6.874999963E-3,-2.543750033E-2
3.511145012E1,-1.086249948E-2,-6.874999963E-3,-2.543750033E-2
3.513145012E1,-7.012499962E-3,-5.224999972E-3,4.523750022E-2
3.515145012E1,-7.012499962E-3,-5.224999972E-3,4.523750022E-2
3.517145012E1,-2.612499986E-3,-2.859999985E-2,3.189999983E-2
3.519145012E1,-2.612499986E-3,-2.859999985E-2,3.189999983E-2
3.521145012E1,4.812499974E-3,-4.468749836E-2,3.698749840E-2
3.523145012E1,4.812499974E-3,-4.468749836E-2,3.698749840E-2
3.525145012E1,4.812499974E-3,-4.468749836E-2,3.698749840E-2
3.527145012E1,1.636249945E-2,-6.586249918E-2,3.231250122E-2
3.529145012E1,1.636249945E-2,-6.586249918E-2,3.231250122E-2
3.531145012E1,1.636249945E-2,-6.586249918E-2,3.231250122E-2
3.533145012E1,1.636249945E-2,-6.586249918E-2,3.231250122E-2
3.535145012E1,1.636249945E-2,-6.586249918E-2,3.231250122E-2
3.537145012E1,-4.674999975E-3,-8.470000327E-2,-1.512499992E-2
3.539145012E1,-4.674999975E-3,-8.470000327E-2,-1.512499992E-2
3.541145012E1,-3.712499980E-3,-6.132499874E-2,-3.011249937E-2
3.543145012E1,-3.712499980E-3,-6.132499874E-2,-3.011249937E-2
3.545145012E1,-3.712499980E-3,-6.132499874E-2,-3.011249937E-2
3.547145012E1,-1.457499992E-2,-4.179999977E-2,-2.186249942E-2
3.549145012E1,-1.457499992E-2,-4.179999977E-2,-2.186249942E-2
3.551145012E1,-1.938750036E-2,2.749999985E-3,-2.749999985E-4
3.553145012E1,-1.938750036E-2,2.749999985E-3,-2.749999985E-4
3.555145012E1,-8.662499487E-3,8.662499487E-3,1.168750040E-2
3.557145012E1,-8.662499487E-3,8.662499487E-3,1.168750040E-2
3.559145012E1,-8.662499487E-3,8.662499487E-3,1.168750040E-2
3.561145012E1,5.224999972E-3,-6.888750196E-2,8.387500420E-3
3.563145012E1,5.224999972E-3,-6.888750196E-2,8.387500420E-3
3.565145012E1,-1.264999993E-2,-1.130250022E-1,5.637499969E-3
3.567145012E1,-1.264999993E-2,-1.130250022E-1,5.637499969E-3
3.569145012E1,-1.264999993E-2,-1.130250022E-1,5.637499969E-3
3.571145012E1,-3.547500074E-2,-1.659625024E-1,-3.341250122E-2
3.573145012E1,-3.547500074E-2,-1.659625024E-1,-3.341250122E-2
3.575145012E1,-6.599999964E-2,-2.144999951E-1,-8.470000327E-2
3.577145012E1,-6.599999964E-2,-2.144999951E-1,-8.470000327E-2
3.579145012E1,-6.599999964E-2,-2.144999951E-1,-8.470000327E-2
3.581145012E1,-7.177499682E-2,-1.861750036E-1,-7.741250098E-2
3.583145012E1,-7.177499682E-2,-1.861750036E-1,-7.741250098E-2
3.585145012E1,-5.981250107E-2,-1.546874940E-1,-5.816249922E-2
3.587145012E1,-5.981250107E-2,-1.546874940E-1,-5.816249922E-2
3.589145012E1,-6.572499871E-2,-1.590874940E-1,-2.571249940E-2
3.591145012E1,-6.572499871E-2,-1.590874940E-1,-2.571249940E-2
3.593145012E1,-4.427500069E-2,-1.010624990E-1,4.413750023E-2
3.595145012E1,-4.427500069E-2,-1.010624990E-1,4.413750023E-2
3.597145012E1,-4.427500069E-2,-1.010624990E-1,4.413750023E-2
3.599145012E1,-1.924999990E-3,-2.708750032E-2,9.817499667E-2
3.601145012E1,-1.924999990E-3,-2.708750032E-2,9.817499667E-2
3.603145012E1,-1.924999990E-3,-2.708750032E-2,9.817499667E-2
3.605145012E1,1.333750039E-2,2.749999985E-4,6.847500056E-2
3.607145012E1,1.333750039E-2,2.749999985E-4,6.847500056E-2
3.609145012E1,8.112499490E-3,-2.406249940E-2,4.069999978E-2
3.611145012E1,8.112499490E-3,-2.406249940E-2,4.069999978E-2
3.613145012E1,8.112499490E-3,-2.406249940E-2,4.069999978E-2
3.615145012E1,8.112499490E-3,-2.406249940E-2,4.069999978E-2
3.617145012E1,8.112499490E-3,-2.406249940E-2,4.069999978E-2
3.619145012E1,4.523750022E-2,-8.910000324E-2,4.949999973E-3
3.621145012E1,4.523750022E-2,-8.910000324E-2,4.949999973E-3
3.623145012E1,4.001250118E-2,-1.465750039E-1,1.182499994E-2
3.625145012E1,4.001250118E-2,-1.465750039E-1,1.182499994E-2
3.627145012E1,5.307500064E-2,-2.594625056E-1,4.853750020E-2
3.629145012E1,5.307500064E-2,-2.594625056E-1,4.853750020E-2
3.631145012E1,5.307500064E-2,-2.594625056E-1,4.853750020E-2
3.633145012E1,6.957499683E-2,-2.696374953E-1,7.823749632E-2
3.635145012E1,6.957499683E-2,-2.696374953E-1,7.823749632E-2
3.637145012E1,6.957499683E-2,-2.696374953E-1,7.823749632E-2
3.639145012E1,6.957499683E-2,-2.696374953E-1,7.823749632E-2
3.641145012E1,6.957499683E-2,-2.696374953E-1,7.823749632E-2
3.643145012E1,6.861250103E-2,-2.744500041E-1,5.678749830E-2
3.645145012E1,6.861250103E-2,-2.744500041E-1,5.678749830E-2
3.647145012E1,1.164624989E-1,-1.834249943E-1,3.877500072E-2
3.649145012E1,1.164624989E-1,-1.834249943E-1,3.877500072E-2
3.651145012E1,1.164624989E-1,-1.834249943E-1,3.877500072E-2
3.653145012E1,1.165999994E-1,-7.727500051E-2,5.183750018E-2
3.655145012E1,1.165999994E-1,-7.727500051E-2,5.183750018E-2
3.657145012E1,7.246249914E-2,-7.919999957E-2,4.193750024E-2
3.659145012E1,7.246249914E-2,-7.919999957E-2,4.193750024E-2
3.661145012E1,5.692499876E-2,-6.201250106E-2,2.873750031E-2
3.663145012E1,5.692499876E-2,-6.201250106E-2,2.873750031E-2
3.665145012E1,5.692499876E-2,-6.201250106E-2,2.873750031E-2
3.667145012E1,3.643750027E-2,-4.166249931E-2,6.228749827E-2
3.669145012E1,3.643750027E-2,-4.166249931E-2,6.228749827E-2
3.671145012E1,6.187499966E-3,-9.033749998E-2,6.696250290E-2
3.673145012E1,6.187499966E-3,-9.033749998E-2,6.696250290E-2
3.675145012E1,6.187499966E-3,-9.033749998E-2,6.696250290E-2
3.677145012E1,6.187499966E-3,-8.511249721E-2,-3.602499887E-2
3.679145012E1,6.187499966E-3,-8.511249721E-2,-3.602499887E-2
3.681145012E1,3.671250120E-2,-4.015000165E-2,-1.194875017E-1
3.683145012E1,3.671250120E-2,-4.015000165E-2,-1.194875017E-1
3.685145012E1,3.671250120E-2,-4.015000165E-2,-1.194875017E-1
3.687145012E1,3.671250120E-2,-4.015000165E-2,-1.194875017E-1
3.689145012E1,3.671250120E-2,-4.015000165E-2,-1.194875017E-1
3.691145012E1,7.342500240E-2,2.804999985E-2,-4.853750020E-2
3.693145012E1,7.342500240E-2,2.804999985E-2,-4.853750020E-2
3.695145012E1,4.111250117E-2,3.464999795E-2,-7.892499864E-2
3.697145012E1,4.111250117E-2,3.464999795E-2,-7.892499864E-2
3.699145012E1,2.268750034E-2,3.382499889E-2,-4.399999976E-2
3.701145012E1,2.268750034E-2,3.382499889E-2,-4.399999976E-2
3.703145012E1,2.268750034E-2,3.382499889E-2,-4.399999976E-2
3.705145012E1,1.044999994E-2,4.578749835E-2,3.877500072E-2
3.707145012E1,1.044999994E-2,4.578749835E-2,3.877500072E-2
3.709145012E1,1.044999994E-2,4.578749835E-2,3.877500072E-2
3.711145012E1,-1.154999994E-2,1.471249945E-2,1.251249947E-2
3.713145012E1,-1.154999994E-2,1.471249945E-2,1.251249947E-2
3.715145012E1,-2.062499896E-2,-3.162499890E-2,-4.523750022E-2
3.717145012E1,-2.062499896E-2,-3.162499890E-2,-4.523750022E-2
3.719145012E1,8.524999954E-3,-5.183750018E-2,-2.337500080E-2
3.721145012E1,8.524999954E-3,-5.183750018E-2,-2.337500080E-2
3.723145012E1,8.524999954E-3,-5.183750018E-2,-2.337500080E-2
3.725145012E1,1.649999991E-2,-1.072499994E-2,1.539999992E-2
3.727145012E1,1.649999991E-2,-1.072499994E-2,1.539999992E-2
3.729145012E1,-6.599999964E-3,3.024999984E-3,2.901249938E-2
3.731145012E1,-6.599999964E-3,3.024999984E-3,2.901249938E-2
3.733145012E1,-1.457499992E-2,1.952499896E-2,4.069999978E-2
3.735145012E1,-1.457499992E-2,1.952499896E-2,4.069999978E-2
3.737145012E1,-1.457499992E-2,1.952499896E-2,4.069999978E-2
3.739145012E1,4.124999978E-4,2.323750034E-2,4.702499881E-2
3.741145012E1,4.124999978E-4,2.323750034E-2,4.702499881E-2
3.743145012E1,4.124999978E-4,2.323750034E-2,4.702499881E-2
3.745145012E1,4.124999978E-4,2.323750034E-2,4.702499881E-2
3.747145012E1,4.124999978E-4,2.323750034E-2,4.702499881E-2
3.749145012E1,-3.121249937E-2,-2.406249940E-2,1.086249948E-2
3.751145012E1,-3.121249937E-2,-2.406249940E-2,1.086249948E-2
3.753145012E1,-9.624999948E-3,-6.324999966E-3,3.024999984E-3
3.755145012E1,-9.624999948E-3,-6.324999966E-3,3.024999984E-3
3.757145012E1,-9.624999948E-3,-6.324999966E-3,3.024999984E-3
3.759145012E1,-9.487500414E-3,-1.278750040E-2,-1.429999992E-2
3.761145012E1,-9.487500414E-3,-1.278750040E-2,-1.429999992E-2
3.763145012E1,-1.154999994E-2,1.484999992E-2,-4.757500067E-2
3.765145012E1,-1.154999994E-2,1.484999992E-2,-4.757500067E-2
3.767145012E1,-1.154999994E-2,1.484999992E-2,-4.757500067E-2
3.769145012E1,-1.154999994E-2,1.484999992E-2,-4.757500067E-2
3.771145012E1,-1.154999994E-2,1.484999992E-2,-4.757500067E-2
3.773145012E1,1.704999991E-2,-2.736249939E-2,6.324999966E-3
3.775145012E1,1.704999991E-2,-2.736249939E-2,6.324999966E-3
3.777145012E1,1.649999991E-2,-5.788749829E-2,1.677500084E-2
3.779145012E1,1.649999991E-2,-5.788749829E-2,1.677500084E-2
3.781145012E1,1.649999991E-2,-5.788749829E-2,1.677500084E-2
3.783145012E1,2.406249940E-2,-7.644999772E-2,2.529999986E-2
3.785145012E1,2.406249940E-2,-7.644999772E-2,2.529999986E-2
3.787145012E1,2.901249938E-2,-2.254999988E-2,3.011249937E-2
3.789145012E1,2.901249938E-2,-2.254999988E-2,3.011249937E-2
3.791145012E1,2.543750033E-2,9.102500230E-2,1.443750039E-2
3.793145012E1,2.543750033E-2,9.102500230E-2,1.443750039E-2
3.795145012E1,2.543750033E-2,9.102500230E-2,1.443750039E-2
3.797145012E1,1.319999993E-2,1.043625027E-1,2.076249942E-2
3.799145012E1,1.319999993E-2,1.043625027E-1,2.076249942E-2
3.801145012E1,5.637499969E-3,8.635000139E-2,1.553750038E-2
3.803145012E1,5.637499969E-3,8.635000139E-2,1.553750038E-2
3.805145012E1,5.637499969E-3,8.635000139E-2,1.553750038E-2
3.807145012E1,1.196249947E-2,8.689999580E-2,7.149999961E-3
3.809145012E1,1.196249947E-2,8.689999580E-2,7.149999961E-3
3.811145012E1,1.649999991E-3,5.623750016E-2,1.182499994E-2
3.813145012E1,1.649999991E-3,5.623750016E-2,1.182499994E-2
3.815145012E1,1.649999991E-3,5.623750016E-2,1.182499994E-2
3.817145012E1,-7.012499962E-3,2.694999985E-2,2.832499892E-2
3.819145012E1,-7.012499962E-3,2.694999985E-2,2.832499892E-2
3.821145012E1,-4.674999975E-3,1.168750040E-2,3.437500075E-2
3.823145012E1,-4.674999975E-3,1.168750040E-2,3.437500075E-2
3.825145012E1,-9.762499481E-3,5.499999970E-4,2.021249942E-2
3.827145012E1,-9.762499481E-3,5.499999970E-4,2.021249942E-2
3.829145012E1,-9.762499481E-3,5.499999970E-4,2.021249942E-2
3.831145012E1,-1.347499993E-2,6.448750198E-2,6.599999964E-3
3.833145012E1,-1.347499993E-2,6.448750198E-2,6.599999964E-3
3.835145012E1,2.543750033E-2,6.063750014E-2,1.484999992E-2
3.837145012E1,2.543750033E-2,6.063750014E-2,1.484999992E-2
3.839145012E1,2.543750033E-2,6.063750014E-2,1.484999992E-2
3.841145012E1,2.791249938E-2,-4.028749838E-2,1.498750038E-2
3.843145012E1,2.791249938E-2,-4.028749838E-2,1.498750038E-2
3.845145012E1,1.526249945E-2,-6.929999590E-2,1.374999993E-3
3.847145012E1,1.526249945E-2,-6.929999590E-2,1.374999993E-3
3.849145012E1,1.526249945E-2,-6.929999590E-2,1.374999993E-3
3.851145012E1,1.526249945E-2,-6.929999590E-2,1.374999993E-3
3.853145012E1,1.526249945E-2,-6.929999590E-2,1.374999993E-3
3.855145012E1,2.667500079E-2,-7.658749819E-2,1.182499994E-2
3.857145012E1,2.667500079E-2,-7.658749819E-2,1.182499994E-2
3.859145012E1,1.429999992E-2,-4.908749834E-2,-1.924999990E-3
3.861145012E1,1.429999992E-2,-4.908749834E-2,-1.924999990E-3
3.863145012E1,1.429999992E-2,-4.908749834E-2,-1.924999990E-3
3.865145012E1,1.924999990E-3,2.681249939E-2,-1.691249944E-2
3.867145012E1,1.924999990E-3,2.681249939E-2,-1.691249944E-2
3.869145012E1,-7.287499961E-3,1.104125008E-1,-1.801249944E-2
3.871145012E1,-7.287499961E-3,1.104125008E-1,-1.801249944E-2
3.873145012E1,-1.127499994E-2,8.827500045E-2,-1.237499993E-2
3.875145012E1,-1.127499994E-2,8.827500045E-2,-1.237499993E-2
3.877145012E1,-1.127499994E-2,8.827500045E-2,-1.237499993E-2
3.879145012E1,-1.498750038E-2,8.373750001E-2,-9.899999946E-3
3.881145012E1,-1.498750038E-2,8.373750001E-2,-9.899999946E-3
3.883145012E1,-1.072499994E-2,9.515000135E-2,-7.837500423E-3
3.885145012E1,-1.072499994E-2,9.515000135E-2,-7.837500423E-3
3.887145012E1,-1.072499994E-2,9.515000135E-2,-7.837500423E-3
3.889145012E1,-3.024999984E-3,9.487500042E-2,-6.462499965E-3
3.891145012E1,-3.024999984E-3,9.487500042E-2,-6.462499965E-3
3.893145012E1,2.749999985E-4,7.933750004E-2,2.749999985E-4
3.895145012E1,2.749999985E-4,7.933750004E-2,2.749999985E-4
3.897145012E1,1.374999993E-3,8.635000139E-2,-4.674999975E-3
3.899145012E1,1.374999993E-3,8.635000139E-2,-4.674999975E-3
3.901145012E1,1.374999993E-3,8.635000139E-2,-4.674999975E-3
3.903145012E1,-1.319999993E-2,9.899999946E-2,-2.639999986E-2
3.905145012E1,-1.319999993E-2,9.899999946E-2,-2.639999986E-2
3.907145012E1,-1.828750037E-2,8.731249720E-2,-2.406249940E-2
3.909145012E1,-1.828750037E-2,8.731249720E-2,-2.406249940E-2
3.911145012E1,-1.828750037E-2,8.731249720E-2,-2.406249940E-2
3.913145012E1,-2.021249942E-2,6.641250104E-2,-3.203750029E-2
3.915145012E1,-2.021249942E-2,6.641250104E-2,-3.203750029E-2
3.917145012E1,-3.464999795E-2,3.904999793E-2,-5.183750018E-2
3.919145012E1,-3.464999795E-2,3.904999793E-2,-5.183750018E-2
3.921145012E1,-3.464999795E-2,3.904999793E-2,-5.183750018E-2
3.923145012E1,-4.097500071E-2,5.926249921E-2,-4.757500067E-2
3.925145012E1,-4.097500071E-2,5.926249921E-2,-4.757500067E-2
3.927145012E1,-3.121249937E-2,7.548750192E-2,-3.244999796E-2
3.929145012E1,-3.121249937E-2,7.548750192E-2,-3.244999796E-2
3.931145012E1,-2.736249939E-2,9.102500230E-2,-2.337500080E-2
3.933145012E1,-2.736249939E-2,9.102500230E-2,-2.337500080E-2
3.935145012E1,-2.736249939E-2,9.102500230E-2,-2.337500080E-2
3.937145012E1,-3.959999979E-2,6.118749827E-2,-2.598750032E-2
3.939145012E1,-3.959999979E-2,6.118749827E-2,-2.598750032E-2
3.941145012E1,-3.135000169E-2,6.201250106E-2,-1.622499898E-2
3.943145012E1,-3.135000169E-2,6.201250106E-2,-1.622499898E-2
3.945145012E1,-1.979999989E-2,8.538749814E-2,-4.399999976E-3
3.947145012E1,-1.979999989E-2,8.538749814E-2,-4.399999976E-3
3.949145012E1,-1.979999989E-2,8.538749814E-2,-4.399999976E-3
3.951145012E1,-1.526249945E-2,6.655000150E-2,-5.637499969E-3
3.953145012E1,-1.526249945E-2,6.655000150E-2,-5.637499969E-3
3.955145012E1,-1.526249945E-2,6.655000150E-2,-5.637499969E-3
3.957145012E1,-1.526249945E-2,6.655000150E-2,-5.637499969E-3
3.959145012E1,-1.526249945E-2,6.655000150E-2,-5.637499969E-3
3.961145012E1,-2.186249942E-2,5.912499875E-2,-1.237499993E-2
3.963145012E1,-2.186249942E-2,5.912499875E-2,-1.237499993E-2
3.965145012E1,-1.099999994E-3,6.063750014E-2,-1.031249948E-2
3.967145012E1,-1.099999994E-3,6.063750014E-2,-1.031249948E-2
3.969145012E1,-1.099999994E-3,6.063750014E-2,-1.031249948E-2
