Time (s),ax,ay,az,gx,gy,gz
5.011450124,2.185950041,-9.583050728,0.4360500276,-0.001374999993,0.3711124957,-0.01388750039
5.031450124,2.185950041,-9.583050728,0.4360500276,-0.001374999993,0.3711124957,-0.01388750039
5.051450124,2.089950085,-9.640950203,0.109950006,-0.05871250108,0.2259124964,-0.09088750184
5.071450124,1.918050051,-9.640950203,0.109950006,-0.05871250108,0.2259124964,-0.09088750184
5.091450124,1.918050051,-9.640950203,0.109950006,-0.05871250108,0.2259124964,-0.09088750184
5.111450124,1.285950065,-9.736050606,0.4360500276,-0.07287500054,0.08346249908,-0.1585374922
5.131450124,1.285950065,-9.736050606,0.4360500276,-0.07287500054,0.08346249908,-0.1585374922
5.151450124,1.285950065,-9.736050606,0.4360500276,-0.07287500054,0.08346249908,-0.1585374922
5.171450124,1.248000026,-9.640950203,0.5700000525,-0.0298375003,0.08002500236,-0.05596249923
5.191450124,1.248000026,-9.640950203,0.5700000525,-0.0298375003,0.08002500236,-0.05596249923
5.211450124,1.726050138,-9.660000801,0.4549500346,0.01127499994,0.1061500013,0.08717499673
5.231450124,1.726050138,-9.660000801,0.4549500346,0.01127499994,0.1061500013,0.08717499673
5.251450124,1.78395009,-9.679050446,0.3589500189,0.002887499984,0.05843750015,0.1082125008
5.271450124,1.78395009,-9.679050446,0.3589500189,0.002887499984,0.05843750015,0.1082125008
5.291450124,1.78395009,-9.679050446,0.3589500189,0.002887499984,0.05843750015,0.1082125008
5.311450124,1.401000023,-9.583050728,0.2250000089,0.005362499971,0.01292499993,0.1586750001
5.331450124,1.401000023,-9.583050728,0.2250000089,0.005362499971,0.01292499993,0.1586750001
5.351450124,1.248000026,-9.507000923,0.01395000052,0.01099999994,-0.02873750031,0.1842499971
5.371450124,1.248000026,-9.507000923,0.01395000052,0.01099999994,-0.02873750031,0.1842499971
5.391450124,1.803000093,-9.507000923,0.244050011,-0.01567500085,-0.1410750002,0.09143749624
5.411450124,2.052000046,-9.622050285,0.378000021,-0.01567500085,-0.1410750002,0.09143749624
5.431450124,2.052000046,-9.622050285,0.378000021,-0.01567500085,-0.1410750002,0.09143749624
5.451450124,2.205000162,-9.850950241,0.7039500475,-0.01952499896,-0.1787499934,-0.08167500049
5.471450124,2.205000162,-9.850950241,0.7039500475,-0.01952499896,-0.1787499934,-0.08167500049
5.491450124,2.205000162,-9.850950241,0.7039500475,-0.01952499896,-0.1787499934,-0.08167500049
5.511450124,2.205000162,-9.850950241,0.7039500475,-0.01952499896,-0.1787499934,-0.08167500049
5.531450124,2.205000162,-9.850950241,0.7039500475,-0.01952499896,-0.1787499934,-0.08167500049
5.551450124,1.055999994,-9.601950645,0.5509500504,0.07383749634,-0.1231999993,-0.06049999967
5.571450124,1.055999994,-9.601950645,0.5509500504,0.07383749634,-0.1231999993,-0.06049999967
5.591450124,0.9990000725,-9.679050446,0.4549500346,0.09693749994,-0.04399999976,0.03176249936
5.611450124,0.9990000725,-9.679050446,0.4549500346,0.09693749994,-0.04399999976,0.03176249936
5.631450124,0.9990000725,-9.679050446,0.4549500346,0.09693749994,-0.04399999976,0.03176249936
5.651450124,2.014050007,-9.43005085,0.5509500504,0.09432499856,0.00192499999,0.05101250112
5.671450124,2.014050007,-9.43005085,0.5509500504,0.09432499856,0.00192499999,0.05101250112
5.691450124,2.032950163,-9.468000412,0.7609500289,0.08855000138,0.0309375003,0.03684999794
5.711450124,2.032950163,-9.468000412,0.7609500289,0.08855000138,0.0309375003,0.03684999794
5.731450124,2.148000002,-9.736050606,0.646050036,0.06462500244,0.02914999984,0.02062499896
5.751450124,2.089950085,-9.679050446,0.493050009,0.06462500244,0.02914999984,0.02062499896
5.771450124,2.089950085,-9.679050446,0.493050009,0.06462500244,0.02914999984,0.02062499896
5.791450124,1.630950093,-9.640950203,0.3970500231,0.02722499892,0.008662499487,-0.0257124994
5.811450124,1.630950093,-9.640950203,0.3970500231,0.02722499892,0.008662499487,-0.0257124994
5.831450124,1.438950062,-9.697950363,0.493050009,0.00192499999,-0.02804999985,-0.1402499974
5.851450124,1.438950062,-9.697950363,0.493050009,0.00192499999,-0.02804999985,-0.1402499974
5.871450124,1.438950062,-9.697950363,0.493050009,0.00192499999,-0.02804999985,-0.1402499974
5.891450124,1.497000098,-9.622050285,0.4740000367,0.004537499975,-0.009074999951,-0.101062499
5.911450124,1.497000098,-9.622050285,0.4740000367,0.004537499975,-0.009074999951,-0.101062499
5.931450124,1.840950131,-9.640950203,0.3970500231,-0.01306249946,-0.01086249948,-0.01402499992
5.951450124,1.840950131,-9.640950203,0.3970500231,-0.01306249946,-0.01086249948,-0.01402499992
5.971450124,1.840950131,-9.640950203,0.3970500231,-0.01306249946,-0.01086249948,-0.01402499992
5.991450124,1.993950129,-9.56400013,0.5700000525,-0.04083750024,-0.05156249925,0.05995000154
6.011450124,1.993950129,-9.56400013,0.5700000525,-0.04083750024,-0.05156249925,0.05995000154
6.031450124,1.993950129,-9.660000801,0.7420500517,-0.02172499895,-0.02667500079,0.04124999791
6.051450124,1.993950129,-9.660000801,0.7420500517,-0.02172499895,-0.02667500079,0.04124999791
6.071450124,1.95600009,-9.640950203,0.5890500546,0.0233750008,0.07603749633,-0.02928750031
6.091450124,1.95600009,-9.640950203,0.5890500546,0.0233750008,0.07603749633,-0.02928750031
6.111450124,1.899000049,-9.583050728,0.4549500346,0.0233750008,0.07603749633,-0.02928750031
6.131450124,1.936950088,-9.583050728,0.4549500346,0.01828750037,0.03107500076,-0.1319999993
6.151450124,1.936950088,-9.583050728,0.4549500346,0.01828750037,0.03107500076,-0.1319999993
6.171450124,1.993950129,-9.601950645,0.493050009,0.01801249944,-0.01952499896,-0.1385999918
6.191450124,1.993950129,-9.601950645,0.493050009,0.01801249944,-0.01952499896,-0.1385999918
6.211450124,1.993950129,-9.601950645,0.493050009,0.01801249944,-0.01952499896,-0.1385999918
6.231450124,2.071050167,-9.526050568,0.646050036,0.01663750038,0.01512499992,-0.1027124971
6.251450124,2.071050167,-9.526050568,0.646050036,0.01663750038,0.01512499992,-0.1027124971
6.271450124,2.128050089,-9.544950485,0.7039500475,0.02034999989,0.02268750034,-0.08566249907
6.291450124,2.128050089,-9.544950485,0.7039500475,0.02034999989,0.02268750034,-0.08566249907
6.311450124,2.128050089,-9.544950485,0.7039500475,0.02034999989,0.02268750034,-0.08566249907
6.331450124,2.128050089,-9.544950485,0.7039500475,0.02034999989,0.02268750034,-0.08566249907
6.351450124,2.128050089,-9.544950485,0.7039500475,0.02034999989,0.02268750034,-0.08566249907
6.371450124,1.918050051,-9.622050285,0.4549500346,0.01402499992,-0.04509999976,-0.06379999965
6.391450124,1.918050051,-9.622050285,0.4549500346,0.01402499992,-0.04509999976,-0.06379999965
6.411450124,1.899000049,-9.601950645,0.5310000181,0.007562499959,-0.02227500081,-0.03368749842
6.431450124,1.899000049,-9.601950645,0.5310000181,0.007562499959,-0.02227500081,-0.03368749842
6.451450124,2.071050167,-9.56400013,0.493050009,0.007562499959,-0.02227500081,-0.03368749842
6.471450124,2.148000002,-9.468000412,0.511950016,0.01086249948,-0.04619999975,-0.00178749999
6.491450124,2.148000002,-9.468000412,0.511950016,0.01086249948,-0.04619999975,-0.00178749999
6.511450124,2.262000084,-9.544950485,0.5509500504,-0.00192499999,-0.1194875017,-0.003574999981
6.531450124,2.262000084,-9.544950485,0.5509500504,-0.00192499999,-0.1194875017,-0.003574999981
6.551450124,2.242950201,-9.544950485,0.6850500107,-0.006874999963,-0.09088750184,-0.02722499892
6.571450124,2.242950201,-9.544950485,0.6850500107,-0.006874999963,-0.09088750184,-0.02722499892
6.591450124,2.242950201,-9.544950485,0.6850500107,-0.006874999963,-0.09088750184,-0.02722499892
6.611450124,2.205000162,-9.43005085,0.8380500674,0.01044999994,-0.0303875003,-0.0618750006
6.631450124,2.205000162,-9.43005085,0.8380500674,0.01044999994,-0.0303875003,-0.0618750006
6.651450124,2.032950163,-9.544950485,0.8569500446,0.07507500052,0.02681249939,-0.08277499676
6.671450124,2.032950163,-9.544950485,0.8569500446,0.07507500052,0.02681249939,-0.08277499676
6.691450124,2.032950163,-9.544950485,0.8569500446,0.07507500052,0.02681249939,-0.08277499676
6.711450124,1.650000095,-9.850950241,0.646050036,0.1109625027,0.01388750039,-0.05142499879
6.731450124,1.650000095,-9.850950241,0.646050036,0.1109625027,0.01388750039,-0.05142499879
6.751450124,1.840950131,-9.526050568,0.09105000645,0.0679249987,-0.0316249989,0.06531249732
6.771450124,1.840950131,-9.526050568,0.09105000645,0.0679249987,-0.0316249989,0.06531249732
6.791450124,2.071050167,-9.468000412,0.3019500077,0.02213750035,-0.1116499975,0.1249874979
6.831450124,2.071050167,-9.468000412,0.3019500077,0.02213750035,-0.1116499975,0.1249874979
6.851450124,2.224050045,-9.352950096,0.9340500236,-0.0192499999,-0.1588124931,0.08799999952
6.871450124,2.224050045,-9.352950096,0.9340500236,-0.0192499999,-0.1588124931,0.08799999952
6.891450124,2.35800004,-9.43005085,0.9340500236,-0.004812499974,-0.0808499977,0.03946249932
6.911450124,2.35800004,-9.43005085,0.9340500236,-0.004812499974,-0.0808499977,0.03946249932
6.931450124,2.454000235,-9.601950645,0.511950016,-0.001649999991,-0.06737499684,-0.08332499862
6.951450124,2.281949997,-9.544950485,0.3210000098,-0.001649999991,-0.06737499684,-0.08332499862
6.971450124,2.281949997,-9.544950485,0.3210000098,-0.001649999991,-0.06737499684,-0.08332499862
6.991450124,2.071050167,-9.56400013,0.109950006,-0.01677500084,-0.1335124969,-0.1414874941
7.011450124,2.071050167,-9.56400013,0.109950006,-0.01677500084,-0.1335124969,-0.1414874941
7.031450124,2.071050167,-9.56400013,0.109950006,-0.01677500084,-0.1335124969,-0.1414874941
7.051450124,2.109000206,-9.43005085,0.6649500132,-0.001374999993,-0.1347499937,-0.105187498
7.071450124,2.109000206,-9.43005085,0.6649500132,-0.001374999993,-0.1347499937,-0.105187498
7.091450124,2.185950041,-9.487950325,0.9910500646,0.0246124994,-0.1700875014,-0.06242499873
7.111450124,2.185950041,-9.487950325,0.9910500646,0.0246124994,-0.1700875014,-0.06242499873
7.131450124,2.205000162,-9.640950203,0.9720000625,0.0369874984,-0.1579875052,-0.01292499993
7.151450124,2.205000162,-9.640950203,0.9720000625,0.0369874984,-0.1579875052,-0.01292499993
7.171450124,2.205000162,-9.640950203,0.9720000625,0.0369874984,-0.1579875052,-0.01292499993
7.191450124,2.014050007,-9.56400013,0.5890500546,0.03121249937,-0.1231999993,0.04441250116
7.211450124,2.014050007,-9.56400013,0.5890500546,0.03121249937,-0.1231999993,0.04441250116
7.231450124,1.822050095,-9.717000008,0.5509500504,0.07287500054,-0.04991250113,0.05967500061
7.251450124,1.822050095,-9.717000008,0.5509500504,0.07287500054,-0.04991250113,0.05967500061
7.271450124,1.822050095,-9.334050179,0.6649500132,0.1016125008,0.01031249948,0.08964999765
7.291450124,1.95600009,-9.258000374,0.7420500517,0.1016125008,0.01031249948,0.08964999765
7.311450124,1.95600009,-9.258000374,0.7420500517,0.1016125008,0.01031249948,0.08964999765
7.331450124,1.95600009,-9.258000374,0.7420500517,0.1016125008,0.01031249948,0.08964999765
7.351450124,1.95600009,-9.258000374,0.7420500517,0.1016125008,0.01031249948,0.08964999765
7.371450124,1.458000064,-9.199950218,0.9529500604,0.04303750023,-0.113987498,0.1555124968
7.391450124,1.458000064,-9.199950218,0.9529500604,0.04303750023,-0.113987498,0.1555124968
7.411450124,1.458000064,-9.199950218,0.9529500604,0.04303750023,-0.113987498,0.1555124968
7.431450124,2.109000206,-9.583050728,0.8190000653,0.04138749838,-0.107662499,0.1403875053
7.451450124,2.109000206,-9.583050728,0.8190000653,0.04138749838,-0.107662499,0.1403875053
7.471450124,1.860000134,-9.679050446,0.493050009,0.0669625029,-0.01127499994,0.07259999961
7.491450124,1.860000134,-9.679050446,0.493050009,0.0669625029,-0.01127499994,0.07259999961
7.511450124,1.860000134,-9.679050446,0.493050009,0.0669625029,-0.01127499994,0.07259999961
7.531450124,1.95600009,-9.583050728,0.07200000435,0.02942499891,-0.02172499895,0.01402499992
7.551450124,1.95600009,-9.583050728,0.07200000435,0.02942499891,-0.02172499895,0.01402499992
7.571450124,2.320050001,-9.601950645,0.5509500504,-0.07975000143,-0.1087625027,0.0004124999978
7.591450124,2.320050001,-9.601950645,0.5509500504,-0.07975000143,-0.1087625027,0.0004124999978
7.611450124,2.434950113,-9.660000801,0.6850500107,-0.09253749996,-0.04564999789,-0.09735000134
7.631450124,2.434950113,-9.660000801,0.6850500107,-0.09253749996,-0.04564999789,-0.09735000134
7.651450124,2.434950113,-9.334050179,1.048050046,-0.09253749996,-0.04564999789,-0.09735000134
7.651450124,2.434950113,-9.660000801,0.6850500107,-0.09253749996,-0.04564999789,-0.09735000134
7.691450124,2.434950113,-9.334050179,1.048050046,-0.08002500236,0.03932499886,-0.1772374958
7.711450124,1.899000049,-9.640950203,0.8950500488,-0.05128749833,0.0665500015,-0.1216875017
7.731450124,1.899000049,-9.640950203,0.8950500488,-0.05128749833,0.0665500015,-0.1216875017
7.751450124,1.899000049,-9.640950203,0.8950500488,-0.05128749833,0.0665500015,-0.1216875017
7.771450124,1.669050097,-9.601950645,0.5700000525,0.03313750029,0.163075,-0.08304999769
7.791450124,1.669050097,-9.601950645,0.5700000525,0.03313750029,0.163075,-0.08304999769
7.811450124,1.975050092,-9.601950645,0.4549500346,0.06641250104,0.1856250018,0.004949999973
7.831450124,1.975050092,-9.601950645,0.4549500346,0.06641250104,0.1856250018,0.004949999973
7.851450124,1.975050092,-9.601950645,0.4549500346,0.06641250104,0.1856250018,0.004949999973
7.871450124,1.975050092,-9.601950645,0.4549500346,0.06641250104,0.1856250018,0.004949999973
7.891450124,1.975050092,-9.601950645,0.4549500346,0.06641250104,0.1856250018,0.004949999973
7.911450124,2.128050089,-9.56400013,0.646050036,-0.06215000153,-0.02433750033,0.09116250277
7.931450124,2.128050089,-9.56400013,0.646050036,-0.06215000153,-0.02433750033,0.09116250277
7.951450124,2.185950041,-9.487950325,0.8760000467,-0.08566249907,-0.03547500074,0.07975000143
7.971450124,2.185950041,-9.487950325,0.8760000467,-0.08566249907,-0.03547500074,0.07975000143
7.991450124,2.281949997,-9.37305069,0.9529500604,-0.05719999969,0.04124999791,-0.000549999997
8.011450124,2.205000162,-9.352950096,0.9340500236,-0.05719999969,0.04124999791,-0.000549999997
8.031450124,2.205000162,-9.352950096,0.9340500236,-0.05719999969,0.04124999791,-0.000549999997
8.051450124,1.899000049,-9.850950241,0.4549500346,-0.01127499994,0.09707500041,-0.1014750004
8.071450124,1.899000049,-9.850950241,0.4549500346,-0.01127499994,0.09707500041,-0.1014750004
8.091450124,1.899000049,-9.850950241,0.4549500346,-0.01127499994,0.09707500041,-0.1014750004
8.111450124,1.55400002,-9.640950203,0.378000021,0.006737499963,0.1115124971,-0.04537500069
8.131450124,1.55400002,-9.640950203,0.378000021,0.006737499963,0.1115124971,-0.04537500069
8.151450124,1.860000134,-9.544950485,0.780000031,0.009487500414,0.107662499,0.07727500051
8.171450124,1.860000134,-9.544950485,0.780000031,0.009487500414,0.107662499,0.07727500051
8.191450124,1.95600009,-9.468000412,1.009950042,0.0309375003,0.1315875053,0.07026249915
8.211450124,1.95600009,-9.468000412,1.009950042,0.0309375003,0.1315875053,0.07026249915
8.231450124,1.95600009,-9.468000412,1.009950042,0.0309375003,0.1315875053,0.07026249915
8.251450124,2.052000046,-9.601950645,0.7230000496,0.02653750032,0.1333750039,0.08030000329
8.271450124,2.052000046,-9.601950645,0.7230000496,0.02653750032,0.1333750039,0.08030000329
8.291450124,2.052000046,-9.601950645,0.7230000496,0.02653750032,0.1333750039,0.08030000329
8.311450124,2.052000046,-9.601950645,0.7230000496,0.02653750032,0.1333750039,0.08030000329
8.331450124,2.205000162,-9.526050568,0.511950016,-0.03478749841,0.1164624989,-0.01347499993
8.351450124,2.185950041,-9.544950485,0.5890500546,-0.03478749841,0.1164624989,-0.01347499993
8.371450124,2.185950041,-9.544950485,0.5890500546,-0.03478749841,0.1164624989,-0.01347499993
8.391450124,2.205000162,-9.544950485,0.7420500517,-0.02969999984,0.1310375035,-0.1194875017
8.411450124,2.205000162,-9.544950485,0.7420500517,-0.02969999984,0.1310375035,-0.1194875017
8.431450124,2.205000162,-9.544950485,0.7420500517,-0.02969999984,0.1310375035,-0.1194875017
8.451450124,2.205000162,-9.544950485,0.7420500517,-0.02969999984,0.1310375035,-0.1194875017
8.471450124,2.205000162,-9.544950485,0.7420500517,-0.02969999984,0.1310375035,-0.1194875017
8.491450124,2.281949997,-9.56400013,0.493050009,-0.09583749622,0.03437500075,-0.1168750003
8.511450124,2.281949997,-9.56400013,0.493050009,-0.09583749622,0.03437500075,-0.1168750003
8.531450124,2.205000162,-9.583050728,0.5310000181,-0.07548750192,0.004812499974,-0.09363749623
8.551450124,2.205000162,-9.583050728,0.5310000181,-0.07548750192,0.004812499974,-0.09363749623
8.571450124,2.205000162,-9.583050728,0.5310000181,-0.07548750192,0.004812499974,-0.09363749623
8.591450124,2.071050167,-9.583050728,0.6649500132,-0.04427500069,0.03217500076,-0.05788749829
8.611450124,2.071050167,-9.583050728,0.6649500132,-0.04427500069,0.03217500076,-0.05788749829
8.631450124,2.052000046,-9.601950645,0.6850500107,-0.02598750032,0.0808499977,-0.0244750008
8.651450124,2.052000046,-9.601950645,0.6850500107,-0.02598750032,0.0808499977,-0.0244750008
8.671450124,2.032950163,-9.507000923,0.6649500132,-0.02914999984,0.09831249714,0.0175999999
8.691450124,2.032950163,-9.507000923,0.6649500132,-0.02914999984,0.09831249714,0.0175999999
8.711450124,2.032950163,-9.507000923,0.6649500132,-0.02914999984,0.09831249714,0.0175999999
8.731450124,2.071050167,-9.56400013,0.5890500546,-0.03533750027,0.1377750039,0.04564999789
8.751450124,2.071050167,-9.56400013,0.5890500546,-0.03533750027,0.1377750039,0.04564999789
8.771450124,2.109000206,-9.544950485,0.5700000525,-0.0303875003,0.167750001,0.04221250117
8.791450124,2.109000206,-9.544950485,0.5700000525,-0.0303875003,0.167750001,0.04221250117
8.811450124,2.109000206,-9.544950485,0.5700000525,-0.0303875003,0.167750001,0.04221250117
8.831450124,2.167050123,-9.487950325,0.5700000525,-0.03712499887,0.2237125039,0.02007500082
8.851450124,2.167050123,-9.487950325,0.5700000525,-0.03712499887,0.2237125039,0.02007500082
8.871450124,2.224050045,-9.601950645,0.6079500318,-0.04166249931,0.2006125003,-0.004124999978
8.891450124,2.224050045,-9.601950645,0.6079500318,-0.04166249931,0.2006125003,-0.004124999978
8.911450124,2.224050045,-9.601950645,0.6079500318,-0.04166249931,0.2006125003,-0.004124999978
8.931450124,2.224050045,-9.601950645,0.6079500318,-0.04166249931,0.2006125003,-0.004124999978
8.951450124,2.224050045,-9.601950645,0.6079500318,-0.04166249931,0.2006125003,-0.004124999978
8.971450124,2.032950163,-9.56400013,0.511950016,-0.06063750014,0.1456124932,-0.04083750024
8.991450124,2.032950163,-9.56400013,0.511950016,-0.06063750014,0.1456124932,-0.04083750024
9.011450124,1.95600009,-9.487950325,0.6079500318,-0.06008749828,0.1611499935,-0.02268750034
9.031450124,1.95600009,-9.487950325,0.6079500318,-0.06008749828,0.1611499935,-0.02268750034
9.051450124,2.032950163,-9.526050568,0.6079500318,-0.04001250118,0.1454750001,0.009624999948
9.071450124,2.052000046,-9.56400013,0.5700000525,-0.04001250118,0.1454750001,0.009624999948
9.091450124,2.052000046,-9.56400013,0.5700000525,-0.04001250118,0.1454750001,0.009624999948
9.111450124,2.128050089,-9.56400013,0.4549500346,-0.0373999998,0.1438249946,0.02117500082
9.131450124,2.128050089,-9.56400013,0.4549500346,-0.0373999998,0.1438249946,0.02117500082
9.151450124,2.128050089,-9.56400013,0.4549500346,-0.0373999998,0.1438249946,0.02117500082
9.171450124,2.205000162,-9.601950645,0.4549500346,-0.04743750021,0.1021625027,0.01704999991
9.191450124,2.205000162,-9.601950645,0.4549500346,-0.04743750021,0.1021625027,0.01704999991
9.211450124,2.242950201,-9.583050728,0.3970500231,-0.05018749833,0.06531249732,0.005912499968
9.231450124,2.242950201,-9.583050728,0.3970500231,-0.05018749833,0.06531249732,0.005912499968
9.251450124,2.205000162,-9.56400013,0.4549500346,-0.05156249925,0.06324999779,-0.04455000162
9.271450124,2.205000162,-9.56400013,0.4549500346,-0.05156249925,0.06324999779,-0.04455000162
9.291450124,2.205000162,-9.56400013,0.4549500346,-0.05156249925,0.06324999779,-0.04455000162
9.311450124,2.205000162,-9.56400013,0.4549500346,-0.05156249925,0.06324999779,-0.04455000162
9.331450124,2.205000162,-9.56400013,0.4549500346,-0.05156249925,0.06324999779,-0.04455000162
9.351450124,2.071050167,-9.56400013,0.5890500546,-0.04482499883,0.08387500048,-0.04633750021
9.371450124,2.071050167,-9.56400013,0.5890500546,-0.04482499883,0.08387500048,-0.04633750021
9.391450124,2.071050167,-9.56400013,0.5890500546,-0.04482499883,0.08387500048,-0.04633750021
9.411450124,2.014050007,-9.487950325,0.493050009,-0.02653750032,0.1553750038,-0.0251624994
9.431450124,2.014050007,-9.487950325,0.493050009,-0.02653750032,0.1553750038,-0.0251624994
9.451450124,2.128050089,-9.583050728,0.6079500318,-0.01993750036,0.1699499935,0.01581249945
9.471450124,2.128050089,-9.583050728,0.6079500318,-0.01993750036,0.1699499935,0.01581249945
9.491450124,2.167050123,-9.487950325,0.646050036,-0.01993750036,0.1699499935,0.01581249945
9.491450124,2.167050123,-9.487950325,0.646050036,-0.01993750036,0.1699499935,0.01581249945
9.531450124,2.167050123,-9.487950325,0.646050036,0.006462499965,0.193599999,0.02089999989
9.551450124,2.128050089,-9.544950485,0.5700000525,0.01842499897,0.1637624949,0.01402499992
9.571450124,2.128050089,-9.544950485,0.5700000525,0.01842499897,0.1637624949,0.01402499992
9.591450124,2.089950085,-9.544950485,0.6079500318,0.009487500414,0.09515000135,0.01251249947
9.611450124,2.089950085,-9.544950485,0.6079500318,0.009487500414,0.09515000135,0.01251249947
9.631450124,2.089950085,-9.544950485,0.6079500318,0.009487500414,0.09515000135,0.01251249947
9.651450124,2.167050123,-9.56400013,0.6270000339,0.01031249948,0.05458749831,0.003437499981
9.671450124,2.167050123,-9.56400013,0.6270000339,0.01031249948,0.05458749831,0.003437499981
9.691450124,2.148000002,-9.622050285,0.6079500318,0.02433750033,0.03987500072,-0.02749999985
9.711450124,2.148000002,-9.622050285,0.6079500318,0.02433750033,0.03987500072,-0.02749999985
9.731450124,2.032950163,-9.601950645,0.6649500132,0.02048750035,-0.0002749999985,-0.0122375004
9.751450124,2.032950163,-9.601950645,0.6649500132,0.02048750035,-0.0002749999985,-0.0122375004
9.771450124,2.032950163,-9.601950645,0.6649500132,0.02048750035,-0.0002749999985,-0.0122375004
9.791450124,2.014050007,-9.56400013,0.6649500132,0.02626249939,-0.01498750038,0.01526249945
9.811450124,2.014050007,-9.56400013,0.6649500132,0.02626249939,-0.01498750038,0.01526249945
9.831450124,2.052000046,-9.56400013,0.5310000181,0.02653750032,-0.003574999981,0.02942499891
9.851450124,2.052000046,-9.56400013,0.5310000181,0.02653750032,-0.003574999981,0.02942499891
9.871450124,2.052000046,-9.56400013,0.5310000181,0.02653750032,-0.003574999981,0.02942499891
9.891450124,2.148000002,-9.583050728,0.5310000181,0.01306249946,-0.0298375003,0.02722499892
9.911450124,2.148000002,-9.583050728,0.5310000181,0.01306249946,-0.0298375003,0.02722499892
9.931450124,2.052000046,-9.583050728,0.5700000525,0.0006874999963,-0.05788749829,0.02942499891
9.951450124,2.052000046,-9.583050728,0.5700000525,0.0006874999963,-0.05788749829,0.02942499891
9.971450124,2.052000046,-9.583050728,0.5700000525,0.0006874999963,-0.05788749829,0.02942499891
9.991450124,2.052000046,-9.583050728,0.5700000525,0.0006874999963,-0.05788749829,0.02942499891
10.01145012,2.052000046,-9.583050728,0.5700000525,0.0006874999963,-0.05788749829,0.02942499891
10.03145012,2.071050167,-9.544950485,0.493050009,-0.0192499999,-0.1509750038,0.0233750008
10.05145012,2.071050167,-9.544950485,0.493050009,-0.0192499999,-0.1509750038,0.0233750008
10.07145012,2.014050007,-9.583050728,0.493050009,-0.01649999991,-0.1593624949,0.00742499996
10.09145012,2.014050007,-9.583050728,0.493050009,-0.01649999991,-0.1593624949,0.00742499996
10.11145012,1.95600009,-9.56400013,0.493050009,-0.01361249946,-0.09391249716,0.006874999963
10.13145012,1.975050092,-9.583050728,0.4549500346,-0.01361249946,-0.09391249716,0.006874999963
10.15145012,1.975050092,-9.583050728,0.4549500346,-0.01361249946,-0.09391249716,0.006874999963
10.17145012,1.95600009,-9.56400013,0.3019500077,-0.02378750034,-0.04028749838,0.03643750027
10.19145012,1.95600009,-9.56400013,0.3019500077,-0.02378750034,-0.04028749838,0.03643750027
10.21145012,1.95600009,-9.56400013,0.3019500077,-0.02378750034,-0.04028749838,0.03643750027
10.23145012,1.95600009,-9.56400013,0.3019500077,-0.02378750034,-0.04028749838,0.03643750027
10.25145012,1.95600009,-9.56400013,0.3019500077,-0.02378750034,-0.04028749838,0.03643750027
10.27145012,2.128050089,-9.583050728,0.378000021,-0.04496249929,-0.05087500066,0.01952499896
10.29145012,2.128050089,-9.583050728,0.378000021,-0.04496249929,-0.05087500066,0.01952499896
10.31145012,2.128050089,-9.583050728,0.378000021,-0.04496249929,-0.05087500066,0.01952499896
10.33145012,2.128050089,-9.583050728,0.378000021,-0.04496249929,-0.05087500066,0.01952499896
10.35145012,2.128050089,-9.583050728,0.378000021,-0.04496249929,-0.05087500066,0.01952499896
10.37145012,2.109000206,-9.526050568,0.3400500119,-0.05706249923,-0.09350000322,-0.007837500423
10.39145012,2.109000206,-9.526050568,0.3400500119,-0.05706249923,-0.09350000322,-0.007837500423
10.41145012,2.014050007,-9.468000412,0.5310000181,-0.0373999998,-0.1079374999,-0.02144999988
10.43145012,2.014050007,-9.468000412,0.5310000181,-0.0373999998,-0.1079374999,-0.02144999988
10.45145012,2.014050007,-9.468000412,0.5310000181,-0.0373999998,-0.1079374999,-0.02144999988
10.47145012,2.185950041,-9.507000923,0.5310000181,-0.0181499999,-0.01594999991,-0.0316249989
10.49145012,2.185950041,-9.507000923,0.5310000181,-0.0181499999,-0.01594999991,-0.0316249989
10.51145012,2.377050161,-9.601950645,0.2820000052,-0.007149999961,0.08002500236,-0.04028749838
10.53145012,2.377050161,-9.601950645,0.2820000052,-0.007149999961,0.08002500236,-0.04028749838
10.55145012,2.377050161,-9.583050728,0.1480500102,-0.02117500082,0.07837499678,-0.073012501
10.57145012,2.377050161,-9.583050728,0.1480500102,-0.02117500082,0.07837499678,-0.073012501
10.59145012,2.377050161,-9.583050728,0.1480500102,-0.02117500082,0.07837499678,-0.073012501
10.61145012,2.185950041,-9.544950485,0.4549500346,-0.04331250116,0.06737499684,-0.07535000145
10.63145012,2.185950041,-9.544950485,0.4549500346,-0.04331250116,0.06737499684,-0.07535000145
10.65145012,2.167050123,-9.56400013,0.4549500346,-0.02736249939,0.08030000329,-0.0679249987
10.67145012,2.167050123,-9.56400013,0.4549500346,-0.02736249939,0.08030000329,-0.0679249987
10.69145012,2.167050123,-9.56400013,0.4549500346,-0.02736249939,0.08030000329,-0.0679249987
10.71145012,2.109000206,-9.544950485,0.378000021,-0.01773750037,0.06971249729,-0.04248749837
10.73145012,2.109000206,-9.544950485,0.378000021,-0.01773750037,0.06971249729,-0.04248749837
10.75145012,2.205000162,-9.583050728,0.3589500189,-0.01526249945,0.04991250113,-0.01649999991
10.77145012,2.205000162,-9.583050728,0.3589500189,-0.01526249945,0.04991250113,-0.01649999991
10.79145012,2.185950041,-9.544950485,0.378000021,-0.007562499959,0.06104999781,0.02488750033
10.81145012,2.185950041,-9.544950485,0.378000021,-0.007562499959,0.06104999781,0.02488750033
10.83145012,2.185950041,-9.544950485,0.378000021,-0.007562499959,0.06104999781,0.02488750033
10.85145012,2.167050123,-9.468000412,0.493050009,0.03616249934,0.1149500012,0.03368749842
10.87145012,2.167050123,-9.468000412,0.493050009,0.03616249934,0.1149500012,0.03368749842
10.89145012,2.377050161,-9.468000412,0.3970500231,0.0257124994,0.05362499878,0.01732499897
10.91145012,2.377050161,-9.468000412,0.3970500231,0.0257124994,0.05362499878,0.01732499897
10.93145012,2.377050161,-9.468000412,0.3970500231,0.0257124994,0.05362499878,0.01732499897
10.95145012,2.262000084,-9.56400013,0.3210000098,0.01526249945,-0.01347499993,-0.04028749838
10.97145012,2.262000084,-9.56400013,0.3210000098,0.01526249945,-0.01347499993,-0.04028749838
10.99145012,2.167050123,-9.56400013,0.3400500119,-0.004262499977,-0.02639999986,-0.04441250116
11.01145012,2.167050123,-9.56400013,0.3400500119,-0.004262499977,-0.02639999986,-0.04441250116
11.03145012,2.224050045,-9.544950485,0.3970500231,-0.005912499968,-0.03932499886,-0.03148749843
11.05145012,2.224050045,-9.544950485,0.3970500231,-0.005912499968,-0.03932499886,-0.03148749843
11.07145012,2.224050045,-9.544950485,0.3970500231,-0.005912499968,-0.03932499886,-0.03148749843
11.09145012,2.242950201,-9.507000923,0.4549500346,0.01044999994,-0.08415000141,-0.0362999998
11.11145012,2.242950201,-9.507000923,0.4549500346,0.01044999994,-0.08415000141,-0.0362999998
11.13145012,2.301000118,-9.526050568,0.511950016,0.02076249942,-0.07906249911,-0.02364999987
11.15145012,2.301000118,-9.526050568,0.511950016,0.02076249942,-0.07906249911,-0.02364999987
11.17145012,2.262000084,-9.507000923,0.5509500504,0.03877500072,-0.06270000339,-0.006599999964
11.19145012,2.224050045,-9.507000923,0.5509500504,0.03877500072,-0.06270000339,-0.006599999964
11.21145012,2.224050045,-9.507000923,0.5509500504,0.03877500072,-0.06270000339,-0.006599999964
11.23145012,2.128050089,-9.56400013,0.493050009,0.06943749636,-0.08016250283,0.01182499994
11.25145012,2.128050089,-9.56400013,0.493050009,0.06943749636,-0.08016250283,0.01182499994
11.27145012,2.128050089,-9.56400013,0.493050009,0.06943749636,-0.08016250283,0.01182499994
11.29145012,2.128050089,-9.56400013,0.493050009,0.06943749636,-0.08016250283,0.01182499994
11.31145012,2.128050089,-9.56400013,0.493050009,0.06943749636,-0.08016250283,0.01182499994
11.33145012,2.224050045,-9.544950485,0.493050009,0.03753750026,-0.03726249933,0.01237499993
11.35145012,2.224050045,-9.544950485,0.493050009,0.03753750026,-0.03726249933,0.01237499993
11.37145012,2.242950201,-9.526050568,0.5509500504,0.01732499897,-0.02364999987,0.01044999994
11.39145012,2.242950201,-9.526050568,0.5509500504,0.01732499897,-0.02364999987,0.01044999994
11.41145012,2.242950201,-9.526050568,0.5509500504,0.01732499897,-0.02364999987,0.01044999994
11.43145012,2.262000084,-9.526050568,0.5700000525,0.02419999987,-0.01099999994,0.01649999991
11.45145012,2.262000084,-9.526050568,0.5700000525,0.02419999987,-0.01099999994,0.01649999991
11.47145012,2.281949997,-9.56400013,0.4360500276,0.01691249944,-0.001649999991,0.008524999954
11.49145012,2.281949997,-9.56400013,0.4360500276,0.01691249944,-0.001649999991,0.008524999954
11.51145012,2.224050045,-9.526050568,0.4159500301,0.01553750038,-0.04028749838,-0.02144999988
11.53145012,2.205000162,-9.544950485,0.4549500346,0.01553750038,-0.04028749838,-0.02144999988
11.55145012,2.205000162,-9.544950485,0.4549500346,0.01553750038,-0.04028749838,-0.02144999988
11.57145012,2.205000162,-9.507000923,0.5700000525,0.02419999987,-0.08277499676,-0.008524999954
11.59145012,2.205000162,-9.507000923,0.5700000525,0.02419999987,-0.08277499676,-0.008524999954
11.61145012,2.224050045,-9.526050568,0.5700000525,0.02708750032,-0.0496375002,0.002612499986
11.63145012,2.224050045,-9.526050568,0.5700000525,0.02708750032,-0.0496375002,0.002612499986
11.65145012,2.224050045,-9.526050568,0.5700000525,0.02708750032,-0.0496375002,0.002612499986
11.67145012,2.148000002,-9.56400013,0.5310000181,0.01636249945,-0.03684999794,0.005362499971
11.69145012,2.148000002,-9.56400013,0.5310000181,0.01636249945,-0.03684999794,0.005362499971
11.71145012,2.167050123,-9.56400013,0.4360500276,0.01141249947,-0.03932499886,0.02557500079
11.73145012,2.167050123,-9.56400013,0.4360500276,0.01141249947,-0.03932499886,0.02557500079
11.75145012,2.167050123,-9.56400013,0.4360500276,0.01141249947,-0.03932499886,0.02557500079
11.77145012,2.242950201,-9.544950485,0.4740000367,0.01649999991,-0.04496249929,0.03492499888
11.79145012,2.242950201,-9.544950485,0.4740000367,0.01649999991,-0.04496249929,0.03492499888
11.81145012,2.224050045,-9.544950485,0.5509500504,0.02763750032,-0.06517499685,0.02557500079
11.83145012,2.224050045,-9.544950485,0.5509500504,0.02763750032,-0.06517499685,0.02557500079
11.85145012,2.224050045,-9.526050568,0.5509500504,0.02777500078,-0.08772499859,0.02007500082
11.87145012,2.224050045,-9.526050568,0.5509500504,0.02777500078,-0.08772499859,0.02007500082
11.89145012,2.224050045,-9.526050568,0.5509500504,0.02777500078,-0.08772499859,0.02007500082
11.91145012,2.167050123,-9.526050568,0.493050009,0.01553750038,-0.1038125008,0.01608750038
11.93145012,2.167050123,-9.526050568,0.493050009,0.01553750038,-0.1038125008,0.01608750038
11.95145012,2.205000162,-9.56400013,0.493050009,0.002887499984,-0.08470000327,0.006599999964
11.97145012,2.205000162,-9.56400013,0.493050009,0.002887499984,-0.08470000327,0.006599999964
11.99145012,2.224050045,-9.526050568,0.5509500504,0.002337499987,-0.04358749837,-0.005362499971
12.01145012,2.205000162,-9.487950325,0.5509500504,0.002337499987,-0.04358749837,-0.005362499971
12.03145012,2.205000162,-9.487950325,0.5509500504,0.002337499987,-0.04358749837,-0.005362499971
12.05145012,2.262000084,-9.526050568,0.511950016,-0.01058750041,0.0240624994,-0.01003750041
12.07145012,2.262000084,-9.526050568,0.511950016,-0.01058750041,0.0240624994,-0.01003750041
12.09145012,2.262000084,-9.544950485,0.511950016,-0.01443750039,0.02653750032,-0.0127875004
12.11145012,2.262000084,-9.544950485,0.511950016,-0.01443750039,0.02653750032,-0.0127875004
12.13145012,2.262000084,-9.544950485,0.511950016,-0.01443750039,0.02653750032,-0.0127875004
12.15145012,2.205000162,-9.507000923,0.5310000181,-0.01072499994,0.01718750037,-0.01154999994
12.17145012,2.205000162,-9.507000923,0.5310000181,-0.01072499994,0.01718750037,-0.01154999994
12.19145012,2.205000162,-9.526050568,0.511950016,0.0002749999985,0.01526249945,-0.01333750039
12.21145012,2.205000162,-9.526050568,0.511950016,0.0002749999985,0.01526249945,-0.01333750039
12.23145012,2.185950041,-9.507000923,0.5509500504,0.0002749999985,0.01526249945,-0.01333750039
12.23145012,2.185950041,-9.507000923,0.5509500504,0.0002749999985,0.01526249945,-0.01333750039
12.25145012,2.205000162,-9.526050568,0.5509500504,0.008799999952,0.0008249999955,-0.006324999966
12.29145012,2.281949997,-9.526050568,0.5310000181,0.02282499894,-0.003299999982,-0.004537499975
12.31145012,2.281949997,-9.526050568,0.5310000181,0.02282499894,-0.003299999982,-0.004537499975
12.33145012,2.224050045,-9.544950485,0.511950016,0.01594999991,0.000549999997,-0.003024999984
12.35145012,2.224050045,-9.544950485,0.511950016,0.01594999991,0.000549999997,-0.003024999984
12.37145012,2.224050045,-9.544950485,0.511950016,0.01594999991,0.000549999997,-0.003024999984
12.39145012,2.167050123,-9.526050568,0.511950016,0.006462499965,0.005087499972,-0.002062499989
12.41145012,2.167050123,-9.526050568,0.511950016,0.006462499965,0.005087499972,-0.002062499989
12.43145012,2.148000002,-9.544950485,0.5700000525,-0.003574999981,0.02378750034,-0.0004124999978
12.45145012,2.148000002,-9.544950485,0.5700000525,-0.003574999981,0.02378750034,-0.0004124999978
12.47145012,2.148000002,-9.544950485,0.5700000525,-0.003574999981,0.02378750034,-0.0004124999978
12.49145012,2.167050123,-9.544950485,0.5310000181,-0.002474999987,0.02736249939,0.009074999951
12.51145012,2.167050123,-9.544950485,0.5310000181,-0.002474999987,0.02736249939,0.009074999951
12.53145012,2.185950041,-9.56400013,0.5509500504,-0.002199999988,0.02749999985,0.01787500083
12.55145012,2.185950041,-9.56400013,0.5509500504,-0.002199999988,0.02749999985,0.01787500083
12.57145012,2.128050089,-9.544950485,0.5310000181,-0.0009624999948,0.01058750041,0.02089999989
12.59145012,2.128050089,-9.544950485,0.5310000181,-0.0009624999948,0.01058750041,0.02089999989
12.61145012,2.128050089,-9.544950485,0.5310000181,-0.0009624999948,0.01058750041,0.02089999989
12.63145012,2.128050089,-9.544950485,0.5509500504,0.004949999973,-0.006874999963,0.02241249941
12.65145012,2.128050089,-9.544950485,0.5509500504,0.004949999973,-0.006874999963,0.02241249941
12.67145012,2.224050045,-9.544950485,0.5890500546,0.0192499999,0.01361249946,0.01347499993
12.69145012,2.224050045,-9.544950485,0.5890500546,0.0192499999,0.01361249946,0.01347499993
12.71145012,2.224050045,-9.544950485,0.5890500546,0.0192499999,0.01361249946,0.01347499993
12.73145012,2.205000162,-9.544950485,0.493050009,0.007974999957,0.008799999952,-0.00178749999
12.75145012,2.205000162,-9.544950485,0.493050009,0.007974999957,0.008799999952,-0.00178749999
12.77145012,2.205000162,-9.544950485,0.493050009,0.007974999957,0.008799999952,-0.00178749999
12.79145012,2.205000162,-9.544950485,0.493050009,0.007974999957,0.008799999952,-0.00178749999
12.81145012,2.205000162,-9.544950485,0.493050009,0.007974999957,0.008799999952,-0.00178749999
12.83145012,2.205000162,-9.487950325,0.5890500546,-0.003162499983,0.02736249939,-0.007287499961
12.85145012,2.205000162,-9.487950325,0.5890500546,-0.003162499983,0.02736249939,-0.007287499961
12.87145012,2.242950201,-9.507000923,0.5509500504,-0.0002749999985,0.04166249931,-0.01608750038
12.89145012,2.242950201,-9.507000923,0.5509500504,-0.0002749999985,0.04166249931,-0.01608750038
12.91145012,2.262000084,-9.526050568,0.5310000181,-0.009487500414,0.04028749838,-0.02172499895
12.93145012,2.262000084,-9.526050568,0.5310000181,-0.009487500414,0.04028749838,-0.02172499895
12.95145012,2.262000084,-9.526050568,0.5310000181,-0.009487500414,0.04028749838,-0.02172499895
12.97145012,2.242950201,-9.526050568,0.5509500504,-0.01787500083,0.07246249914,-0.0181499999
12.99145012,2.242950201,-9.526050568,0.5509500504,-0.01787500083,0.07246249914,-0.0181499999
13.01145012,2.281949997,-9.507000923,0.5310000181,-0.01306249946,0.07548750192,-0.02268750034
13.03145012,2.281949997,-9.507000923,0.5310000181,-0.01306249946,0.07548750192,-0.02268750034
13.05145012,2.224050045,-9.526050568,0.5509500504,-0.009212499484,0.05238749832,-0.02928750031
13.07145012,2.224050045,-9.544950485,0.5509500504,-0.009212499484,0.05238749832,-0.02928750031
13.09145012,2.224050045,-9.544950485,0.5509500504,-0.009212499484,0.05238749832,-0.02928750031
13.11145012,2.301000118,-9.526050568,0.493050009,-0.01003750041,0.04248749837,-0.02131249942
13.13145012,2.301000118,-9.526050568,0.493050009,-0.01003750041,0.04248749837,-0.02131249942
13.15145012,2.301000118,-9.526050568,0.493050009,-0.01003750041,0.04248749837,-0.02131249942
13.17145012,2.301000118,-9.526050568,0.493050009,-0.01003750041,0.04248749837,-0.02131249942
13.19145012,2.301000118,-9.526050568,0.493050009,-0.01003750041,0.04248749837,-0.02131249942
13.21145012,2.205000162,-9.507000923,0.646050036,0.01113750041,-0.07383749634,-0.007562499959
13.23145012,2.205000162,-9.507000923,0.646050036,0.01113750041,-0.07383749634,-0.007562499959
13.25145012,2.185950041,-9.56400013,0.6649500132,0.02227500081,-0.0669625029,0.01086249948
13.27145012,2.185950041,-9.56400013,0.6649500132,0.02227500081,-0.0669625029,0.01086249948
13.29145012,2.185950041,-9.56400013,0.6649500132,0.02227500081,-0.0669625029,0.01086249948
13.31145012,2.167050123,-9.56400013,0.5310000181,0.02969999984,-0.01306249946,0.01691249944
13.33145012,2.167050123,-9.56400013,0.5310000181,0.02969999984,-0.01306249946,0.01691249944
13.35145012,2.167050123,-9.56400013,0.5890500546,0.02199999988,-0.03382499889,0.02969999984
13.37145012,2.167050123,-9.56400013,0.5890500546,0.02199999988,-0.03382499889,0.02969999984
13.39145012,2.148000002,-9.544950485,0.6850500107,0.0309375003,-0.07273750007,0.04482499883
13.41145012,2.148000002,-9.544950485,0.6850500107,0.0309375003,-0.07273750007,0.04482499883
13.43145012,2.148000002,-9.544950485,0.6850500107,0.0309375003,-0.07273750007,0.04482499883
13.45145012,2.128050089,-9.526050568,0.6850500107,0.05403750017,-0.03451250121,0.03767500073
13.47145012,2.128050089,-9.526050568,0.6850500107,0.05403750017,-0.03451250121,0.03767500073
13.49145012,2.128050089,-9.526050568,0.6850500107,0.05403750017,-0.03451250121,0.03767500073
13.51145012,2.128050089,-9.526050568,0.6850500107,0.05403750017,-0.03451250121,0.03767500073
13.53145012,2.128050089,-9.526050568,0.6850500107,0.05403750017,-0.03451250121,0.03767500073
13.55145012,2.089950085,-9.544950485,0.6079500318,0.01993750036,-0.0373999998,0.03423750028
13.57145012,2.089950085,-9.544950485,0.6079500318,0.01993750036,-0.0373999998,0.03423750028
13.59145012,2.089950085,-9.56400013,0.6649500132,0.02021249942,-0.0233750008,0.02942499891
13.61145012,2.089950085,-9.56400013,0.6649500132,0.02021249942,-0.0233750008,0.02942499891
13.63145012,2.148000002,-9.56400013,0.6270000339,0.01649999991,0.03506249934,0.02103750035
13.65145012,2.167050123,-9.583050728,0.5890500546,0.01649999991,0.03506249934,0.02103750035
13.67145012,2.167050123,-9.583050728,0.5890500546,0.01649999991,0.03506249934,0.02103750035
13.69145012,2.148000002,-9.583050728,0.5700000525,-0.002612499986,0.05513750017,0.01017499994
13.71145012,2.148000002,-9.583050728,0.5700000525,-0.002612499986,0.05513750017,0.01017499994
13.73145012,2.128050089,-9.56400013,0.6079500318,-0.01828750037,0.009074999951,0.00371249998
13.75145012,2.128050089,-9.56400013,0.6079500318,-0.01828750037,0.009074999951,0.00371249998
13.77145012,2.128050089,-9.56400013,0.6079500318,-0.01828750037,0.009074999951,0.00371249998
13.79145012,2.052000046,-9.56400013,0.6270000339,-0.01347499993,0.01952499896,0.002474999987
13.81145012,2.052000046,-9.56400013,0.6270000339,-0.01347499993,0.01952499896,0.002474999987
13.83145012,2.052000046,-9.56400013,0.6270000339,-0.01347499993,0.01952499896,0.002474999987
13.85145012,2.052000046,-9.56400013,0.6270000339,-0.01347499993,0.01952499896,0.002474999987
13.87145012,2.052000046,-9.56400013,0.6270000339,-0.01347499993,0.01952499896,0.002474999987
13.89145012,2.109000206,-9.583050728,0.6649500132,0.002612499986,0.02296249941,0.01526249945
13.91145012,2.109000206,-9.583050728,0.6649500132,0.002612499986,0.02296249941,0.01526249945
13.93145012,2.052000046,-9.544950485,0.646050036,0.01787500083,-0.0009624999948,0.02227500081
13.95145012,2.052000046,-9.544950485,0.646050036,0.01787500083,-0.0009624999948,0.02227500081
13.97145012,2.071050167,-9.56400013,0.6649500132,0.02901249938,-0.02681249939,0.0369874984
13.99145012,2.071050167,-9.56400013,0.6649500132,0.02901249938,-0.02681249939,0.0369874984
14.01145012,2.071050167,-9.56400013,0.6649500132,0.02901249938,-0.02681249939,0.0369874984
14.03145012,2.052000046,-9.56400013,0.7039500475,0.03602499887,-0.04152499884,0.02612499893
14.05145012,2.052000046,-9.56400013,0.7039500475,0.03602499887,-0.04152499884,0.02612499893
14.07145012,2.052000046,-9.544950485,0.6850500107,0.03272499889,-0.0628374964,0.01361249946
14.09145012,2.052000046,-9.544950485,0.6850500107,0.03272499889,-0.0628374964,0.01361249946
14.11145012,2.089950085,-9.56400013,0.7039500475,0.02282499894,-0.05224999785,0.004537499975
14.13145012,2.071050167,-9.601950645,0.6850500107,0.02282499894,-0.05224999785,0.004537499975
14.15145012,2.071050167,-9.601950645,0.6850500107,0.02282499894,-0.05224999785,0.004537499975
14.17145012,2.071050167,-9.56400013,0.7039500475,0.02364999987,-0.02956249937,0.002337499987
14.19145012,2.071050167,-9.56400013,0.7039500475,0.02364999987,-0.02956249937,0.002337499987
14.21145012,2.032950163,-9.583050728,0.7230000496,0.03547500074,-0.05884999782,0.002887499984
14.23145012,2.032950163,-9.583050728,0.7230000496,0.03547500074,-0.05884999782,0.002887499984
14.25145012,2.032950163,-9.583050728,0.7230000496,0.03547500074,-0.05884999782,0.002887499984
14.27145012,2.014050007,-9.56400013,0.7420500517,0.03176249936,-0.08016250283,0.01099999994
14.29145012,2.014050007,-9.56400013,0.7420500517,0.03176249936,-0.08016250283,0.01099999994
14.31145012,2.014050007,-9.56400013,0.7420500517,0.03176249936,-0.08016250283,0.01099999994
14.33145012,2.014050007,-9.56400013,0.7420500517,0.03176249936,-0.08016250283,0.01099999994
14.35145012,2.071050167,-9.601950645,0.7230000496,0.01484999992,-0.01484999992,0.005774999969
14.37145012,2.032950163,-9.601950645,0.7039500475,0.01484999992,-0.01484999992,0.005774999969
14.39145012,2.032950163,-9.601950645,0.7039500475,0.01484999992,-0.01484999992,0.005774999969
14.41145012,2.014050007,-9.544950485,0.7420500517,0.01264999993,-0.0244750008,0.01567500085
14.43145012,2.014050007,-9.544950485,0.7420500517,0.01264999993,-0.0244750008,0.01567500085
14.45145012,2.014050007,-9.583050728,0.7039500475,0.008524999954,-0.02089999989,0.0181499999
14.47145012,2.014050007,-9.583050728,0.7039500475,0.008524999954,-0.02089999989,0.0181499999
14.49145012,2.014050007,-9.583050728,0.7039500475,0.008524999954,-0.02089999989,0.0181499999
14.51145012,2.185950041,-9.56400013,0.7039500475,0.003162499983,0.00371249998,0.004949999973
14.53145012,2.185950041,-9.56400013,0.7039500475,0.003162499983,0.00371249998,0.004949999973
14.55145012,2.185950041,-9.56400013,0.7039500475,0.003162499983,0.00371249998,0.004949999973
14.57145012,2.185950041,-9.56400013,0.7039500475,0.003162499983,0.00371249998,0.004949999973
14.59145012,2.185950041,-9.56400013,0.7039500475,0.003162499983,0.00371249998,0.004949999973
14.61145012,1.879950047,-9.679050446,0.646050036,0.0192499999,-0.0804374963,-0.004949999973
14.63145012,1.879950047,-9.679050446,0.646050036,0.0192499999,-0.0804374963,-0.004949999973
14.65145012,1.899000049,-9.660000801,0.6850500107,0.007974999957,-0.03299999982,0.02763750032
14.67145012,1.899000049,-9.660000801,0.6850500107,0.007974999957,-0.03299999982,0.02763750032
14.69145012,1.993950129,-9.775050163,0.6850500107,-0.006599999964,0.002887499984,0.0367125012
14.71145012,1.95600009,-10.02405071,0.7039500475,-0.006599999964,0.002887499984,0.0367125012
14.73145012,1.95600009,-10.02405071,0.7039500475,-0.006599999964,0.002887499984,0.0367125012
14.75145012,1.573050022,-9.468000412,0.7990500331,-0.01402499992,0.01498750038,0.04798749834
14.77145012,1.573050022,-9.468000412,0.7990500331,-0.01402499992,0.01498750038,0.04798749834
14.79145012,1.591950059,-9.448950768,0.7609500289,-0.008524999954,0.03506249934,0.1231999993
14.81145012,1.591950059,-9.448950768,0.7609500289,-0.008524999954,0.03506249934,0.1231999993
14.83145012,1.918050051,-9.391950607,0.913950026,-0.008524999954,0.03506249934,0.1231999993
14.85145012,1.95600009,-9.56400013,0.8569500446,0.007699999958,0.07397499681,0.1388749927
14.87145012,1.95600009,-9.56400013,0.8569500446,0.007699999958,0.07397499681,0.1388749927
14.89145012,2.089950085,-9.526050568,0.6270000339,0.02282499894,0.09569999576,0.06173750013
14.91145012,2.089950085,-9.526050568,0.6270000339,0.02282499894,0.09569999576,0.06173750013
14.93145012,2.089950085,-9.526050568,0.6270000339,0.02282499894,0.09569999576,0.06173750013
14.95145012,1.975050092,-9.660000801,0.7420500517,0.01526249945,0.04702499881,-0.01691249944
14.97145012,1.975050092,-9.660000801,0.7420500517,0.01526249945,0.04702499881,-0.01691249944
14.99145012,1.840950131,-9.697950363,0.9340500236,0.01567500085,0.02846249938,-0.02131249942
15.01145012,1.840950131,-9.697950363,0.9340500236,0.01567500085,0.02846249938,-0.02131249942
15.03145012,1.879950047,-9.487950325,0.780000031,0.01471249945,0.07562500238,-0.04455000162
15.05145012,1.879950047,-9.487950325,0.780000031,0.01471249945,0.07562500238,-0.04455000162
15.07145012,1.879950047,-9.487950325,0.780000031,0.01471249945,0.07562500238,-0.04455000162
15.09145012,2.109000206,-9.56400013,0.646050036,-0.02777500078,0.2173874974,-0.1016125008
15.11145012,2.109000206,-9.56400013,0.646050036,-0.02777500078,0.2173874974,-0.1016125008
15.13145012,2.167050123,-9.56400013,0.6649500132,-0.06173750013,0.180812493,-0.06627500057
15.15145012,2.167050123,-9.56400013,0.6649500132,-0.06173750013,0.180812493,-0.06627500057
15.17145012,2.224050045,-9.544950485,0.7420500517,-0.05747500062,0.1885125041,-0.05747500062
15.19145012,2.262000084,-9.526050568,0.780000031,-0.05747500062,0.1885125041,-0.05747500062
15.21145012,2.262000084,-9.526050568,0.780000031,-0.05747500062,0.1885125041,-0.05747500062
15.23145012,2.338950157,-9.468000412,0.6850500107,-0.06256250292,0.2048749924,-0.1088999957
15.25145012,2.338950157,-9.468000412,0.6850500107,-0.06256250292,0.2048749924,-0.1088999957
15.27145012,2.338950157,-9.468000412,0.6850500107,-0.06256250292,0.2048749924,-0.1088999957
15.29145012,2.338950157,-9.468000412,0.6850500107,-0.06256250292,0.2048749924,-0.1088999957
15.31145012,2.338950157,-9.468000412,0.6850500107,-0.06256250292,0.2048749924,-0.1088999957
15.33145012,2.109000206,-9.56400013,0.5890500546,-0.06297499686,0.03231250122,-0.1255374998
15.35145012,2.109000206,-9.56400013,0.5890500546,-0.06297499686,0.03231250122,-0.1255374998
15.37145012,2.071050167,-9.526050568,0.6850500107,-0.0438624993,0.04757500067,-0.08483749628
15.39145012,2.071050167,-9.526050568,0.6850500107,-0.0438624993,0.04757500067,-0.08483749628
15.41145012,2.052000046,-9.56400013,0.6649500132,-0.04441250116,0.1028499976,-0.04455000162
15.43145012,2.071050167,-9.56400013,0.6270000339,-0.04441250116,0.1028499976,-0.04455000162
15.45145012,2.071050167,-9.56400013,0.6270000339,-0.04441250116,0.1028499976,-0.04455000162
15.47145012,2.205000162,-9.526050568,0.6270000339,-0.04331250116,0.09418749809,0.01099999994
15.49145012,2.205000162,-9.526050568,0.6270000339,-0.04331250116,0.09418749809,0.01099999994
15.51145012,2.242950201,-9.526050568,0.6079500318,-0.0420750007,0.05444999784,0.02282499894
15.53145012,2.242950201,-9.526050568,0.6079500318,-0.0420750007,0.05444999784,0.02282499894
15.55145012,2.242950201,-9.526050568,0.6079500318,-0.0420750007,0.05444999784,0.02282499894
15.57145012,2.109000206,-9.56400013,0.6850500107,-0.02172499895,0.01251249947,0.02653750032
15.59145012,2.109000206,-9.56400013,0.6850500107,-0.02172499895,0.01251249947,0.02653750032
15.61145012,2.014050007,-9.526050568,0.6079500318,0.002474999987,-0.02529999986,0.02351249941
15.63145012,2.014050007,-9.526050568,0.6079500318,0.002474999987,-0.02529999986,0.02351249941
15.65145012,2.014050007,-9.526050568,0.6079500318,0.002474999987,-0.02529999986,0.02351249941
15.67145012,2.032950163,-9.56400013,0.6270000339,0.00811249949,-0.0607750006,0.02997500077
15.69145012,2.032950163,-9.56400013,0.6270000339,0.00811249949,-0.0607750006,0.02997500077
15.71145012,2.148000002,-9.56400013,0.5700000525,0.01732499897,-0.1252624989,0.03299999982
15.73145012,2.148000002,-9.56400013,0.5700000525,0.01732499897,-0.1252624989,0.03299999982
15.75145012,2.167050123,-9.601950645,0.5890500546,0.01732499897,-0.1252624989,0.03299999982
15.77145012,2.128050089,-9.56400013,0.5890500546,0.02034999989,-0.133237496,0.03176249936
15.79145012,2.128050089,-9.56400013,0.5890500546,0.02034999989,-0.133237496,0.03176249936
15.81145012,2.032950163,-9.526050568,0.5700000525,0.0116875004,-0.133100003,0.0298375003
15.83145012,2.032950163,-9.526050568,0.5700000525,0.0116875004,-0.133100003,0.0298375003
15.85145012,1.993950129,-9.544950485,0.6079500318,0.01594999991,-0.1776500046,0.03767500073
15.87145012,1.993950129,-9.544950485,0.6079500318,0.01594999991,-0.1776500046,0.03767500073
15.89145012,1.993950129,-9.544950485,0.6079500318,0.01594999991,-0.1776500046,0.03767500073
15.91145012,1.993950129,-9.601950645,0.6079500318,0.02158750035,-0.1490499973,0.03299999982
15.93145012,1.993950129,-9.601950645,0.6079500318,0.02158750035,-0.1490499973,0.03299999982
15.95145012,2.032950163,-9.56400013,0.5310000181,0.01938750036,-0.1252624989,0.02832499892
15.97145012,2.032950163,-9.56400013,0.5310000181,0.01938750036,-0.1252624989,0.02832499892
15.99145012,2.032950163,-9.56400013,0.5310000181,0.01938750036,-0.1252624989,0.02832499892
16.01145012,2.014050007,-9.583050728,0.493050009,0.01319999993,-0.1863124967,0.0438624993
16.03145012,2.014050007,-9.583050728,0.493050009,0.01319999993,-0.1863124967,0.0438624993
16.05145012,1.993950129,-9.583050728,0.5310000181,0.01237499993,-0.1768250018,0.04771250114
16.07145012,1.993950129,-9.583050728,0.5310000181,0.01237499993,-0.1768250018,0.04771250114
16.09145012,2.014050007,-9.583050728,0.5310000181,0.006599999964,-0.1671999991,0.03464999795
16.11145012,2.014050007,-9.583050728,0.5310000181,0.006599999964,-0.1671999991,0.03464999795
16.13145012,2.014050007,-9.583050728,0.5310000181,0.006599999964,-0.1671999991,0.03464999795
16.15145012,1.975050092,-9.601950645,0.4740000367,-0.004262499977,-0.2132624984,0.02612499893
16.17145012,1.975050092,-9.601950645,0.4740000367,-0.004262499977,-0.2132624984,0.02612499893
16.19145012,1.95600009,-9.601950645,0.4740000367,-0.00811249949,-0.1528999954,0.01677500084
16.21145012,1.95600009,-9.601950645,0.4740000367,-0.00811249949,-0.1528999954,0.01677500084
16.23145012,1.95600009,-9.601950645,0.4740000367,-0.00811249949,-0.1528999954,0.01677500084
16.25145012,1.879950047,-9.601950645,0.4549500346,-0.02131249942,-0.0485375002,0.02873750031
16.27145012,1.879950047,-9.601950645,0.4549500346,-0.02131249942,-0.0485375002,0.02873750031
16.29145012,1.879950047,-9.601950645,0.4549500346,-0.02131249942,-0.0485375002,0.02873750031
16.31145012,1.879950047,-9.601950645,0.4549500346,-0.02131249942,-0.0485375002,0.02873750031
16.33145012,1.993950129,-9.56400013,0.4549500346,-0.03946249932,0.03423750028,0.03011249937
16.35145012,1.993950129,-9.56400013,0.4549500346,-0.03946249932,0.03423750028,0.03011249937
16.37145012,1.993950129,-9.56400013,0.4549500346,-0.03946249932,0.03423750028,0.03011249937
16.39145012,2.089950085,-9.56400013,0.378000021,-0.05046249926,0.06764999777,0.01388750039
16.41145012,2.089950085,-9.56400013,0.378000021,-0.05046249926,0.06764999777,0.01388750039
16.43145012,2.109000206,-9.544950485,0.3210000098,-0.05527500063,0.05884999782,-0.01113750041
16.45145012,2.109000206,-9.544950485,0.3210000098,-0.05527500063,0.05884999782,-0.01113750041
16.47145012,2.109000206,-9.544950485,0.3210000098,-0.05527500063,0.05884999782,-0.01113750041
16.49145012,2.109000206,-9.56400013,0.3210000098,-0.05224999785,0.02227500081,-0.0356125012
16.51145012,2.109000206,-9.56400013,0.3210000098,-0.05224999785,0.02227500081,-0.0356125012
16.53145012,1.993950129,-9.526050568,0.3589500189,-0.05004999787,-0.01237499993,-0.0556874983
16.55145012,1.993950129,-9.526050568,0.3589500189,-0.05004999787,-0.01237499993,-0.0556874983
16.57145012,1.993950129,-9.544950485,0.3210000098,-0.05073750019,-0.03437500075,-0.04537500069
16.59145012,1.993950129,-9.544950485,0.3210000098,-0.05073750019,-0.03437500075,-0.04537500069
16.61145012,1.993950129,-9.544950485,0.3210000098,-0.05073750019,-0.03437500075,-0.04537500069
16.63145012,2.089950085,-9.526050568,0.2820000052,-0.04647500068,-0.04372499883,-0.03272499889
16.65145012,2.089950085,-9.526050568,0.2820000052,-0.04647500068,-0.04372499883,-0.03272499889
16.67145012,2.128050089,-9.583050728,0.2629500031,-0.04716249928,-0.04812499881,-0.02474999987
16.69145012,2.128050089,-9.583050728,0.2629500031,-0.04716249928,-0.04812499881,-0.02474999987
16.71145012,2.128050089,-9.583050728,0.2629500031,-0.04716249928,-0.04812499881,-0.02474999987
16.73145012,2.071050167,-9.56400013,0.2629500031,-0.03657500073,-0.02901249938,-0.01993750036
16.75145012,2.071050167,-9.56400013,0.2629500031,-0.03657500073,-0.02901249938,-0.01993750036
16.77145012,1.95600009,-9.583050728,0.3210000098,-0.02681249939,-0.02433750033,-0.007562499959
16.79145012,1.95600009,-9.583050728,0.3210000098,-0.02681249939,-0.02433750033,-0.007562499959
16.81145012,1.95600009,-9.583050728,0.3210000098,-0.02681249939,-0.02433750033,-0.007562499959
16.83145012,1.918050051,-9.56400013,0.378000021,-0.006737499963,-0.05527500063,0.01044999994
16.85145012,1.918050051,-9.56400013,0.378000021,-0.006737499963,-0.05527500063,0.01044999994
16.87145012,1.899000049,-9.583050728,0.3589500189,0.0181499999,-0.08483749628,0.03464999795
16.89145012,1.899000049,-9.583050728,0.3589500189,0.0181499999,-0.08483749628,0.03464999795
16.91145012,1.918050051,-9.622050285,0.3970500231,0.05706249923,-0.1282874942,0.04757500067
16.93145012,1.918050051,-9.622050285,0.3970500231,0.05706249923,-0.1282874942,0.04757500067
16.95145012,1.918050051,-9.622050285,0.3970500231,0.05706249923,-0.1282874942,0.04757500067
16.97145012,1.726050138,-9.583050728,0.4360500276,0.07919999957,-0.176412493,0.08112499863
16.99145012,1.726050138,-9.583050728,0.4360500276,0.07919999957,-0.176412493,0.08112499863
17.01145012,1.803000093,-9.640950203,0.4740000367,0.09019999951,-0.1775124967,0.1156374961
17.03145012,1.803000093,-9.640950203,0.4740000367,0.09019999951,-0.1775124967,0.1156374961
17.05145012,1.803000093,-9.640950203,0.4740000367,0.09019999951,-0.1775124967,0.1156374961
17.07145012,1.975050092,-9.622050285,0.3970500231,0.08057499677,-0.133100003,0.08813749999
17.09145012,1.975050092,-9.622050285,0.3970500231,0.08057499677,-0.133100003,0.08813749999
17.11145012,1.918050051,-9.601950645,0.3589500189,0.06159999967,-0.1182499975,0.05912499875
17.13145012,1.918050051,-9.601950645,0.3589500189,0.06159999967,-0.1182499975,0.05912499875
17.15145012,1.879950047,-9.622050285,0.4159500301,0.0438624993,-0.1142624989,0.0380874984
17.17145012,1.879950047,-9.622050285,0.4159500301,0.0438624993,-0.1142624989,0.0380874984
17.19145012,1.879950047,-9.622050285,0.4159500301,0.0438624993,-0.1142624989,0.0380874984
17.21145012,1.803000093,-9.56400013,0.5310000181,0.03396249935,-0.08951249719,0.02378750034
17.23145012,1.803000093,-9.56400013,0.5310000181,0.03396249935,-0.08951249719,0.02378750034
17.25145012,1.879950047,-9.622050285,0.493050009,0.03863750026,-0.05252499878,-0.0001374999993
17.27145012,1.879950047,-9.622050285,0.493050009,0.03863750026,-0.05252499878,-0.0001374999993
17.29145012,1.879950047,-9.622050285,0.493050009,0.03863750026,-0.05252499878,-0.0001374999993
17.31145012,1.899000049,-9.601950645,0.4360500276,0.03464999795,-0.07259999961,-0.02268750034
17.33145012,1.899000049,-9.601950645,0.4360500276,0.03464999795,-0.07259999961,-0.02268750034
17.35145012,1.899000049,-9.601950645,0.4740000367,0.03492499888,-0.05046249926,-0.007974999957
17.37145012,1.899000049,-9.601950645,0.4740000367,0.03492499888,-0.05046249926,-0.007974999957
17.39145012,1.899000049,-9.601950645,0.511950016,0.03767500073,-0.00178749999,-0.005087499972
17.41145012,1.899000049,-9.601950645,0.511950016,0.03767500073,-0.00178749999,-0.005087499972
17.43145012,1.899000049,-9.601950645,0.511950016,0.03767500073,-0.00178749999,-0.005087499972
17.45145012,1.936950088,-9.660000801,0.4360500276,0.02488750033,0.03107500076,-0.009624999948
17.47145012,1.936950088,-9.660000801,0.4360500276,0.02488750033,0.03107500076,-0.009624999948
17.49145012,1.879950047,-9.640950203,0.3589500189,0.003987499978,0.01828750037,-0.02378750034
17.51145012,1.879950047,-9.640950203,0.3589500189,0.003987499978,0.01828750037,-0.02378750034
17.53145012,1.879950047,-9.640950203,0.3589500189,0.003987499978,0.01828750037,-0.02378750034
17.55145012,1.726050138,-9.697950363,0.3019500077,-0.03024999984,-0.002887499984,-0.003299999982
17.57145012,1.726050138,-9.697950363,0.3019500077,-0.03024999984,-0.002887499984,-0.003299999982
17.59145012,1.726050138,-9.601950645,0.3400500119,-0.04606249928,0.0556874983,0.04193750024
17.61145012,1.726050138,-9.601950645,0.3400500119,-0.04606249928,0.0556874983,0.04193750024
17.63145012,1.840950131,-9.601950645,0.3589500189,-0.06861250103,0.09143749624,0.04592499882
17.65145012,1.840950131,-9.601950645,0.3589500189,-0.06861250103,0.09143749624,0.04592499882
17.67145012,1.840950131,-9.601950645,0.3589500189,-0.06861250103,0.09143749624,0.04592499882
17.69145012,2.109000206,-9.601950645,0.244050011,-0.08717499673,0.1267749965,0.0251624994
17.71145012,2.109000206,-9.601950645,0.244050011,-0.08717499673,0.1267749965,0.0251624994
17.73145012,2.128050089,-9.487950325,0.03405000269,-0.1060125008,0.1681624949,-0.02584999986
17.75145012,2.128050089,-9.487950325,0.03405000269,-0.1060125008,0.1681624949,-0.02584999986
17.77145012,2.128050089,-9.487950325,0.03405000269,-0.1060125008,0.1681624949,-0.02584999986
17.79145012,2.148000002,-9.526050568,0.1480500102,-0.1314499974,0.2426874936,-0.08373750001
17.81145012,2.148000002,-9.526050568,0.1480500102,-0.1314499974,0.2426874936,-0.08373750001
17.83145012,2.205000162,-9.526050568,0.1480500102,-0.1313125044,0.2545124888,-0.1379124969
17.85145012,2.205000162,-9.526050568,0.1480500102,-0.1313125044,0.2545124888,-0.1379124969
17.87145012,2.167050123,-9.56400013,0.05295000225,-0.1391499937,0.2355374992,-0.158950001
17.91145012,2.167050123,-9.56400013,0.05295000225,-0.1391499937,0.2355374992,-0.158950001
17.93145012,2.109000206,-9.526050568,0.03405000269,-0.1604624987,0.2110625058,-0.1240250021
17.95145012,2.109000206,-9.526050568,0.03405000269,-0.1604624987,0.2110625058,-0.1240250021
17.97145012,2.128050089,-9.583050728,0.01395000052,-0.150425002,0.2311374992,-0.07837499678
17.99145012,2.128050089,-9.583050728,0.01395000052,-0.150425002,0.2311374992,-0.07837499678
18.01145012,2.071050167,-9.507000923,-0.1189500093,-0.1278750002,0.2154625058,-0.04675000161
18.03145012,2.071050167,-9.487950325,-0.1189500093,-0.1278750002,0.2154625058,-0.04675000161
18.05145012,2.071050167,-9.487950325,-0.1189500093,-0.1278750002,0.2154625058,-0.04675000161
18.07145012,2.167050123,-9.526050568,-0.07995000482,-0.1343374997,0.1904374957,-0.0192499999
18.09145012,2.167050123,-9.526050568,-0.07995000482,-0.1343374997,0.1904374957,-0.0192499999
18.11145012,2.167050123,-9.526050568,-0.07995000482,-0.1343374997,0.1904374957,-0.0192499999
18.13145012,2.205000162,-9.448950768,-0.1189500093,-0.1325500011,0.2077624947,-0.005087499972
18.15145012,2.205000162,-9.448950768,-0.1189500093,-0.1325500011,0.2077624947,-0.005087499972
18.17145012,2.224050045,-9.487950325,-0.1759500057,-0.1207249984,0.2076250017,-0.01141249947
18.19145012,2.224050045,-9.487950325,-0.1759500057,-0.1207249984,0.2076250017,-0.01141249947
18.21145012,2.205000162,-9.507000923,-0.1380000114,-0.1201749966,0.2091374993,-0.02969999984
18.23145012,2.205000162,-9.507000923,-0.1380000114,-0.1201749966,0.2091374993,-0.02969999984
18.25145012,2.205000162,-9.507000923,-0.1380000114,-0.1201749966,0.2091374993,-0.02969999984
18.27145012,2.205000162,-9.487950325,-0.2340000123,-0.1105500013,0.2050125003,-0.03492499888
18.29145012,2.205000162,-9.487950325,-0.2340000123,-0.1105500013,0.2050125003,-0.03492499888
18.31145012,2.205000162,-9.487950325,-0.2340000123,-0.1105500013,0.2050125003,-0.03492499888
18.33145012,2.205000162,-9.487950325,-0.2340000123,-0.1105500013,0.2050125003,-0.03492499888
18.35145012,2.128050089,-9.507000923,-0.2140500098,-0.1105500013,0.2050125003,-0.03492499888
18.37145012,2.167050123,-9.526050568,-0.2140500098,-0.08373750001,0.1251250058,-0.01773750037
18.39145012,2.167050123,-9.526050568,-0.2140500098,-0.08373750001,0.1251250058,-0.01773750037
18.41145012,2.109000206,-9.487950325,-0.1950000077,-0.07507500052,0.1127500013,0.01017499994
18.43145012,2.109000206,-9.487950325,-0.1950000077,-0.07507500052,0.1127500013,0.01017499994
18.45145012,2.128050089,-9.583050728,-0.1570500135,-0.05087500066,0.05761250108,0.0244750008
18.47145012,2.128050089,-9.583050728,-0.1570500135,-0.05087500066,0.05761250108,0.0244750008
18.49145012,2.128050089,-9.583050728,-0.1570500135,-0.05087500066,0.05761250108,0.0244750008
18.51145012,2.089950085,-9.544950485,-0.1950000077,-0.02667500079,0.01787500083,0.02832499892
18.53145012,2.089950085,-9.544950485,-0.1950000077,-0.02667500079,0.01787500083,0.02832499892
18.55145012,2.205000162,-9.487950325,-0.2340000123,-0.01017499994,0.03011249937,0.02296249941
18.57145012,2.205000162,-9.487950325,-0.2340000123,-0.01017499994,0.03011249937,0.02296249941
18.59145012,2.224050045,-9.507000923,-0.2530499995,-0.008937500417,0.01416249946,0.00742499996
18.61145012,2.205000162,-9.544950485,-0.2140500098,-0.008937500417,0.01416249946,0.00742499996
18.63145012,2.205000162,-9.544950485,-0.2140500098,-0.008937500417,0.01416249946,0.00742499996
18.65145012,2.089950085,-9.601950645,-0.2910000086,0.002199999988,-0.03492499888,-0.001099999994
18.67145012,2.089950085,-9.601950645,-0.2910000086,0.002199999988,-0.03492499888,-0.001099999994
18.69145012,2.148000002,-9.487950325,-0.2340000123,-0.00811249949,-0.01842499897,-0.00192499999
18.71145012,2.148000002,-9.487950325,-0.2340000123,-0.00811249949,-0.01842499897,-0.00192499999
18.73145012,2.148000002,-9.487950325,-0.2340000123,-0.00811249949,-0.01842499897,-0.00192499999
18.75145012,2.052000046,-9.526050568,-0.1189500093,-0.01801249944,0.02942499891,-0.0009624999948
18.77145012,2.052000046,-9.526050568,-0.1189500093,-0.01801249944,0.02942499891,-0.0009624999948
18.79145012,2.032950163,-9.448950768,-0.1380000114,-0.008249999955,0.02612499893,0.0127875004
18.81145012,2.032950163,-9.448950768,-0.1380000114,-0.008249999955,0.02612499893,0.0127875004
18.83145012,2.032950163,-9.448950768,-0.1380000114,-0.008249999955,0.02612499893,0.0127875004
18.85145012,2.014050007,-9.526050568,-0.2910000086,0.01663750038,-0.001237499993,0.04592499882
18.87145012,2.014050007,-9.526050568,-0.2910000086,0.01663750038,-0.001237499993,0.04592499882
18.89145012,1.993950129,-9.526050568,-0.3289500177,0.01319999993,-0.03024999984,0.05307500064
18.91145012,1.993950129,-9.526050568,-0.3289500177,0.01319999993,-0.03024999984,0.05307500064
18.93145012,2.089950085,-9.526050568,-0.3870000243,0.002612499986,-0.09212499857,0.04193750024
18.95145012,2.089950085,-9.526050568,-0.3870000243,0.002612499986,-0.09212499857,0.04193750024
18.97145012,2.089950085,-9.526050568,-0.3870000243,0.002612499986,-0.09212499857,0.04193750024
18.99145012,2.205000162,-9.622050285,-0.3100500107,0.001099999994,-0.189062506,0.01773750037
19.01145012,2.205000162,-9.622050285,-0.3100500107,0.001099999994,-0.189062506,0.01773750037
19.03145012,2.109000206,-9.622050285,-0.4440000355,-0.02282499894,-0.1863124967,-0.02282499894
19.05145012,2.109000206,-9.622050285,-0.4440000355,-0.02282499894,-0.1863124967,-0.02282499894
19.07145012,1.936950088,-9.583050728,-0.3679500222,-0.05816249922,-0.1303499937,-0.01512499992
19.09145012,1.899000049,-9.583050728,-0.3480000198,-0.05816249922,-0.1303499937,-0.01512499992
19.11145012,1.899000049,-9.583050728,-0.3480000198,-0.05816249922,-0.1303499937,-0.01512499992
19.13145012,1.879950047,-9.507000923,-0.2910000086,-0.05073750019,-0.01746249944,0.007012499962
19.15145012,1.879950047,-9.507000923,-0.2910000086,-0.05073750019,-0.01746249944,0.007012499962
19.17145012,1.879950047,-9.507000923,-0.2910000086,-0.05073750019,-0.01746249944,0.007012499962
19.19145012,2.109000206,-9.622050285,-0.4630500078,-0.03849999979,0.04729999974,0.04015000165
19.21145012,2.109000206,-9.622050285,-0.4630500078,-0.03849999979,0.04729999974,0.04015000165
19.23145012,2.491950035,-9.277050018,-0.751050055,-0.04784999788,0.09982500225,0.03533750027
19.25145012,2.491950035,-9.277050018,-0.751050055,-0.04784999788,0.09982500225,0.03533750027
19.27145012,2.626050234,-9.37305069,-0.6360000372,-0.1038125008,0.01526249945,-0.02117500082
19.29145012,2.626050234,-9.37305069,-0.6360000372,-0.1038125008,0.01526249945,-0.02117500082
19.31145012,2.626050234,-9.37305069,-0.6360000372,-0.1038125008,0.01526249945,-0.02117500082
19.33145012,1.573050022,-9.544950485,-0.8850000501,-0.09184999764,-0.02914999984,-0.05142499879
19.35145012,1.573050022,-9.544950485,-0.8850000501,-0.09184999764,-0.02914999984,-0.05142499879
19.37145012,2.224050045,-9.468000412,-0.9420000315,-0.1493249983,-0.1263625026,-0.02502499893
19.39145012,2.224050045,-9.468000412,-0.9420000315,-0.1493249983,-0.1263625026,-0.02502499893
19.41145012,2.224050045,-9.468000412,-0.9420000315,-0.1493249983,-0.1263625026,-0.02502499893
19.43145012,2.35800004,-9.487950325,-0.6739500165,-0.1491875052,-0.1086250022,-0.03753750026
19.45145012,2.35800004,-9.487950325,-0.6739500165,-0.1491875052,-0.1086250022,-0.03753750026
19.47145012,1.879950047,-9.507000923,-1.095000029,-0.1302125007,-0.1230624989,-0.07479999959
19.49145012,1.879950047,-9.507000923,-1.095000029,-0.1302125007,-0.1230624989,-0.07479999959
19.51145012,1.687950134,-9.43005085,-0.7699500322,-0.105187498,-0.1148125008,0.0362999998
19.53145012,1.687950134,-9.43005085,-0.7699500322,-0.105187498,-0.1148125008,0.0362999998
19.55145012,1.687950134,-9.43005085,-0.7699500322,-0.105187498,-0.1148125008,0.0362999998
19.57145012,2.205000162,-9.411000252,-0.4630500078,-0.04812499881,-0.03533750027,0.09308750182
19.59145012,2.205000162,-9.411000252,-0.4630500078,-0.04812499881,-0.03533750027,0.09308750182
19.61145012,1.975050092,-9.622050285,-1.114050031,0.002474999987,0.08827500045,0.0002749999985
19.63145012,1.975050092,-9.622050285,-1.114050031,0.002474999987,0.08827500045,0.0002749999985
19.65145012,1.975050092,-9.622050285,-1.114050031,0.002474999987,0.08827500045,0.0002749999985
19.67145012,1.744950056,-9.448950768,-0.8850000501,-0.02543750033,0.0665500015,0.01952499896
19.69145012,1.744950056,-9.448950768,-0.8850000501,-0.02543750033,0.0665500015,0.01952499896
19.71145012,2.071050167,-9.526050568,-0.3679500222,-0.01732499897,0.06366249919,0.09350000322
19.73145012,2.071050167,-9.526050568,-0.3679500222,-0.01732499897,0.06366249919,0.09350000322
19.75145012,2.148000002,-9.411000252,-0.7890000343,0.0373999998,0.1196250021,0.03547500074
19.77145012,2.148000002,-9.411000252,-0.7890000343,0.0373999998,0.1196250021,0.03547500074
19.79145012,2.148000002,-9.411000252,-0.7890000343,0.0373999998,0.1196250021,0.03547500074
19.81145012,2.071050167,-9.56400013,-0.8269500136,-0.01086249948,0.02474999987,-0.01979999989
19.83145012,2.071050167,-9.56400013,-0.8269500136,-0.01086249948,0.02474999987,-0.01979999989
19.85145012,2.032950163,-9.526050568,-0.7309500575,-0.0496375002,-0.05623750016,-0.003162499983
19.87145012,2.032950163,-9.526050568,-0.7309500575,-0.0496375002,-0.05623750016,-0.003162499983
19.89145012,2.032950163,-9.526050568,-0.7309500575,-0.0496375002,-0.05623750016,-0.003162499983
19.91145012,2.185950041,-9.487950325,-0.6930000186,0.0186999999,-0.06751249731,-0.01333750039
19.93145012,2.185950041,-9.487950325,-0.6930000186,0.0186999999,-0.06751249731,-0.01333750039
19.95145012,2.205000162,-9.507000923,-0.751050055,0.03519999981,-0.07466249913,-0.08030000329
19.97145012,2.205000162,-9.507000923,-0.751050055,0.03519999981,-0.07466249913,-0.08030000329
19.99145012,2.128050089,-9.487950325,-0.8269500136,0.01017499994,-0.1006499976,-0.07218749821
20.01145012,2.128050089,-9.487950325,-0.8269500136,0.01017499994,-0.1006499976,-0.07218749821
20.03145012,2.128050089,-9.487950325,-0.8269500136,0.01017499994,-0.1006499976,-0.07218749821
20.05145012,1.936950088,-9.544950485,-0.7120500207,0.02213750035,-0.08346249908,-0.03822499886
20.07145012,1.936950088,-9.544950485,-0.7120500207,0.02213750035,-0.08346249908,-0.03822499886
20.09145012,1.95600009,-9.583050728,-0.751050055,0.04372499883,-0.03423750028,-0.005637499969
20.11145012,1.95600009,-9.583050728,-0.751050055,0.04372499883,-0.03423750028,-0.005637499969
20.13145012,1.95600009,-9.583050728,-0.751050055,0.04372499883,-0.03423750028,-0.005637499969
20.15145012,2.052000046,-9.487950325,-0.8080500364,0.02021249942,-0.02103750035,0.03299999982
20.17145012,2.052000046,-9.487950325,-0.8080500364,0.02021249942,-0.02103750035,0.03299999982
20.19145012,2.167050123,-9.544950485,-0.751050055,-0.02186249942,0.005087499972,0.03822499886
20.21145012,2.167050123,-9.544950485,-0.751050055,-0.02186249942,0.005087499972,0.03822499886
20.23145012,2.167050123,-9.544950485,-0.751050055,-0.02186249942,0.005087499972,0.03822499886
20.25145012,2.167050123,-9.640950203,-0.9229500294,-0.0305249989,0.06352499872,0.02928750031
20.27145012,2.167050123,-9.640950203,-0.9229500294,-0.0305249989,0.06352499872,0.02928750031
20.29145012,2.167050123,-9.640950203,-0.9229500294,-0.0305249989,0.06352499872,0.02928750031
20.31145012,2.167050123,-9.640950203,-0.9229500294,-0.0305249989,0.06352499872,0.02928750031
20.33145012,1.95600009,-9.43005085,-0.9040500522,-0.08263749629,0.03849999979,0.005362499971
20.35145012,1.95600009,-9.43005085,-0.9040500522,-0.08263749629,0.03849999979,0.005362499971
20.37145012,1.95600009,-9.43005085,-0.9040500522,-0.08263749629,0.03849999979,0.005362499971
20.39145012,1.95600009,-9.37305069,-0.9420000315,-0.06215000153,0.04936249927,-0.002749999985
20.41145012,1.95600009,-9.37305069,-0.9420000315,-0.06215000153,0.04936249927,-0.002749999985
20.43145012,2.071050167,-9.43005085,-0.9610500336,-0.05142499879,0.01017499994,0.005637499969
20.45145012,2.071050167,-9.43005085,-0.9610500336,-0.05142499879,0.01017499994,0.005637499969
20.47145012,2.185950041,-9.487950325,-0.8460000157,-0.0485375002,-0.0192499999,0.01938750036
20.49145012,2.185950041,-9.56400013,-0.751050055,-0.0485375002,-0.0192499999,0.01938750036
20.51145012,2.185950041,-9.56400013,-0.751050055,-0.0485375002,-0.0192499999,0.01938750036
20.53145012,2.167050123,-9.544950485,-0.7890000343,-0.02351249941,-0.02158750035,0.004537499975
20.55145012,2.167050123,-9.544950485,-0.7890000343,-0.02351249941,-0.02158750035,0.004537499975
20.57145012,2.167050123,-9.544950485,-0.7890000343,-0.02351249941,-0.02158750035,0.004537499975
20.59145012,2.167050123,-9.544950485,-0.7890000343,-0.02351249941,-0.02158750035,0.004537499975
20.61145012,2.167050123,-9.544950485,-0.7890000343,-0.02351249941,-0.02158750035,0.004537499975
20.63145012,1.95600009,-9.870000839,-0.8269500136,0.02681249939,0.02227500081,-0.04303750023
20.65145012,1.95600009,-9.870000839,-0.8269500136,0.02681249939,0.02227500081,-0.04303750023
20.67145012,2.109000206,-9.105000496,-0.6550500393,0.02268750034,0.06215000153,-0.006324999966
20.69145012,2.109000206,-9.105000496,-0.6550500393,0.02268750034,0.06215000153,-0.006324999966
20.71145012,2.301000118,-8.913000107,0.109950006,0.08373750001,0.1691250056,-0.002612499986
20.73145012,2.301000118,-8.950950623,0.3210000098,0.08373750001,0.1691250056,-0.002612499986
20.75145012,2.301000118,-8.950950623,0.3210000098,0.08373750001,0.1691250056,-0.002612499986
20.77145012,2.416050196,-9.315000534,-0.1570500135,0.1777874976,0.2913624942,-0.04069999978
20.79145012,2.416050196,-9.315000534,-0.1570500135,0.1777874976,0.2913624942,-0.04069999978
20.81145012,2.35800004,-9.544950485,-0.7699500322,0.1662375033,0.2565749884,-0.08359999955
20.83145012,2.35800004,-9.544950485,-0.7699500322,0.1662375033,0.2565749884,-0.08359999955
20.85145012,2.35800004,-9.544950485,-0.7699500322,0.1662375033,0.2565749884,-0.08359999955
20.87145012,2.032950163,-9.544950485,-0.4440000355,0.105462499,0.1370874941,-0.07177499682
20.89145012,2.032950163,-9.544950485,-0.4440000355,0.105462499,0.1370874941,-0.07177499682
20.91145012,2.032950163,-9.544950485,-0.4440000355,0.105462499,0.1370874941,-0.07177499682
20.93145012,2.032950163,-9.544950485,-0.4440000355,0.105462499,0.1370874941,-0.07177499682
20.95145012,2.032950163,-9.544950485,-0.4440000355,0.105462499,0.1370874941,-0.07177499682
20.97145012,2.128050089,-9.028050423,0.2820000052,0.1541374922,0.1149500012,-0.02722499892
20.99145012,2.128050089,-9.028050423,0.2820000052,0.1541374922,0.1149500012,-0.02722499892
21.01145012,2.550000191,-9.334050179,-0.06105000153,0.1152250022,-0.03464999795,0.00178749999
21.03145012,2.550000191,-9.334050179,-0.06105000153,0.1152250022,-0.03464999795,0.00178749999
21.05145012,2.167050123,-9.526050568,-0.2910000086,0.116187498,-0.1245749965,0.003437499981
21.07145012,2.167050123,-9.526050568,-0.2910000086,0.116187498,-0.1245749965,0.003437499981
21.09145012,2.167050123,-9.526050568,-0.2910000086,0.116187498,-0.1245749965,0.003437499981
21.11145012,1.669050097,-10.00500011,-0.5970000029,0.1604624987,-0.1168750003,0.06022499874
21.13145012,1.669050097,-10.00500011,-0.5970000029,0.1604624987,-0.1168750003,0.06022499874
21.15145012,2.35800004,-9.162000656,0.8569500446,0.1344749928,-0.1746249944,0.08126249909
21.17145012,2.35800004,-9.162000656,0.8569500446,0.1344749928,-0.1746249944,0.08126249909
21.19145012,2.569050074,-9.315000534,1.221000075,0.2322375029,-0.05995000154,0.0316249989
21.21145012,2.58795023,-9.391950607,1.009950042,0.2322375029,-0.05995000154,0.0316249989
21.23145012,2.58795023,-9.391950607,1.009950042,0.2322375029,-0.05995000154,0.0316249989
21.25145012,2.35800004,-9.391950607,0.4360500276,0.2436500043,-0.01539999992,-0.04619999975
21.27145012,2.35800004,-9.391950607,0.4360500276,0.2436500043,-0.01539999992,-0.04619999975
21.29145012,2.35800004,-9.391950607,0.4360500276,0.2436500043,-0.01539999992,-0.04619999975
21.31145012,2.281949997,-10.19595051,0.1480500102,0.2349874973,0.07576250285,-0.0257124994
21.33145012,2.281949997,-10.19595051,0.1480500102,0.2349874973,0.07576250285,-0.0257124994
21.35145012,2.35800004,-9.679050446,0.1290000081,0.2337500006,0.06435000151,-0.06462500244
21.37145012,2.35800004,-9.679050446,0.1290000081,0.2337500006,0.06435000151,-0.06462500244
21.39145012,2.242950201,-9.238950729,0.6270000339,0.2389750034,-0.03533750027,-0.1490499973
21.41145012,2.242950201,-9.238950729,0.6270000339,0.2389750034,-0.03533750027,-0.1490499973
21.43145012,2.242950201,-9.238950729,0.6270000339,0.2389750034,-0.03533750027,-0.1490499973
21.45145012,2.262000084,-9.526050568,1.507950068,0.2026749998,-0.1421750039,-0.06159999967
21.47145012,2.262000084,-9.526050568,1.507950068,0.2026749998,-0.1421750039,-0.06159999967
21.49145012,2.58795023,-9.601950645,0.9910500646,0.2367749959,-0.09817499667,0.01952499896
21.51145012,2.58795023,-9.601950645,0.9910500646,0.2367749959,-0.09817499667,0.01952499896
21.53145012,2.320050001,-9.544950485,0.378000021,0.2413125038,-0.1963499933,0.01828750037
21.55145012,2.185950041,-9.544950485,0.3019500077,0.2413125038,-0.1963499933,0.01828750037
21.57145012,2.185950041,-9.544950485,0.3019500077,0.2413125038,-0.1963499933,0.01828750037
21.59145012,2.491950035,-9.622050285,0.9720000625,0.2315499932,-0.2942500114,0.02227500081
21.61145012,2.491950035,-9.622050285,0.9720000625,0.2315499932,-0.2942500114,0.02227500081
21.63145012,2.491950035,-9.622050285,0.9720000625,0.2315499932,-0.2942500114,0.02227500081
21.65145012,2.491950035,-9.622050285,0.9720000625,0.2315499932,-0.2942500114,0.02227500081
21.67145012,2.491950035,-9.622050285,0.9720000625,0.2315499932,-0.2942500114,0.02227500081
21.69145012,2.491950035,-9.622050285,0.9720000625,0.2315499932,-0.2942500114,0.02227500081
21.71145012,2.491950035,-9.622050285,0.9720000625,0.2315499932,-0.2942500114,0.02227500081
21.73145012,2.58795023,-9.544950485,1.105949998,0.1443749964,-0.5662249923,-0.04166249931
21.75145012,2.58795023,-9.544950485,1.105949998,0.1443749964,-0.5662249923,-0.04166249931
21.77145012,2.569050074,-9.583050728,1.240050077,0.1568875015,-0.5409250259,-0.01141249947
21.79145012,2.434950113,-9.468000412,1.258950114,0.1568875015,-0.5409250259,-0.01141249947
21.81145012,2.434950113,-9.468000412,1.258950114,0.1568875015,-0.5409250259,-0.01141249947
21.83145012,2.281949997,-9.468000412,1.336050034,0.2486000061,-0.2690874934,-0.03602499887
21.85145012,2.281949997,-9.468000412,1.336050034,0.2486000061,-0.2690874934,-0.03602499887
21.87145012,2.35800004,-9.601950645,1.374000072,0.2025374919,-0.236499995,0.001649999991
21.89145012,2.35800004,-9.601950645,1.374000072,0.2025374919,-0.236499995,0.001649999991
21.91145012,2.397000074,-9.448950768,1.336050034,0.1667875051,-0.1896124929,0.09624999762
21.93145012,2.338950157,-9.468000412,1.221000075,0.1667875051,-0.1896124929,0.09624999762
21.95145012,2.338950157,-9.468000412,1.221000075,0.1667875051,-0.1896124929,0.09624999762
21.97145012,2.338950157,-9.468000412,1.221000075,0.1667875051,-0.1896124929,0.09624999762
21.99145012,2.338950157,-9.468000412,1.221000075,0.1667875051,-0.1896124929,0.09624999762
22.01145012,2.338950157,-9.468000412,1.221000075,0.1667875051,-0.1896124929,0.09624999762
22.03145012,2.58795023,-9.411000252,0.5700000525,0.1067000031,-0.2011625022,0.08910000324
22.05145012,2.58795023,-9.411000252,0.5700000525,0.1067000031,-0.2011625022,0.08910000324
22.07145012,3.258000135,-9.277050018,0.9910500646,0.0009624999948,-0.4388999939,0.06998749822
22.09145012,3.258000135,-9.277050018,0.9910500646,0.0009624999948,-0.4388999939,0.06998749822
22.11145012,3.354000092,-9.37305069,1.258950114,0.006049999967,-0.425562501,-0.1430000067
22.13145012,3.354000092,-9.37305069,1.258950114,0.006049999967,-0.425562501,-0.1430000067
22.15145012,3.354000092,-9.37305069,1.258950114,0.006049999967,-0.425562501,-0.1430000067
22.17145012,2.703000069,-9.43005085,1.278000116,0.02502499893,-0.365749985,-0.2180749923
22.19145012,2.703000069,-9.43005085,1.278000116,0.02502499893,-0.365749985,-0.2180749923
22.21145012,1.744950056,-9.583050728,0.913950026,0.03602499887,-0.2813250124,-0.1495999992
22.23145012,1.744950056,-9.583050728,0.913950026,0.03602499887,-0.2813250124,-0.1495999992
22.25145012,1.803000093,-9.544950485,0.9720000625,0.03519999981,-0.1740749925,-0.02928750031
22.27145012,2.052000046,-9.391950607,1.048050046,0.03519999981,-0.1740749925,-0.02928750031
22.29145012,2.052000046,-9.391950607,1.048050046,0.03519999981,-0.1740749925,-0.02928750031
22.31145012,2.052000046,-9.391950607,1.048050046,0.03519999981,-0.1740749925,-0.02928750031
22.33145012,2.052000046,-9.391950607,1.048050046,0.03519999981,-0.1740749925,-0.02928750031
22.35145012,2.052000046,-9.391950607,1.048050046,0.03519999981,-0.1740749925,-0.02928750031
22.37145012,2.052000046,-9.391950607,1.048050046,0.03519999981,-0.1740749925,-0.02928750031
22.39145012,2.052000046,-9.391950607,1.048050046,0.03519999981,-0.1740749925,-0.02928750031
22.41145012,2.338950157,-9.487950325,0.9529500604,0.0492249988,-0.03946249932,0.09776250273
22.43145012,2.338950157,-9.487950325,0.9529500604,0.0492249988,-0.03946249932,0.09776250273
22.45145012,2.416050196,-9.448950768,1.144050002,-0.004674999975,-0.1428624988,0.1111000031
22.47145012,2.416050196,-9.448950768,1.144050002,-0.004674999975,-0.1428624988,0.1111000031
22.49145012,2.416050196,-9.448950768,1.144050002,-0.004674999975,-0.1428624988,0.1111000031
22.51145012,2.703000069,-9.334050179,1.35495007,0.02667500079,-0.05115000159,-0.02433750033
22.53145012,2.703000069,-9.334050179,1.35495007,0.02667500079,-0.05115000159,-0.02433750033
22.55145012,2.626050234,-9.448950768,1.068000078,0.04619999975,0.02089999989,-0.09735000134
22.57145012,2.626050234,-9.448950768,1.068000078,0.04619999975,0.02089999989,-0.09735000134
22.59145012,2.799000025,-9.448950768,1.162950039,0.02488750033,0.00838750042,-0.03533750027
22.61145012,2.856000185,-9.391950607,1.125,0.02488750033,0.00838750042,-0.03533750027
22.63145012,2.856000185,-9.391950607,1.125,0.02488750033,0.00838750042,-0.03533750027
22.65145012,2.760000229,-9.448950768,1.125,0.01347499993,0.01196249947,0.01237499993
22.67145012,2.760000229,-9.448950768,1.125,0.01347499993,0.01196249947,0.01237499993
22.69145012,2.683950186,-9.315000534,1.374000072,0.04069999978,0.04688749835,-0.03657500073
22.73145012,2.683950186,-9.315000534,1.374000072,0.04069999978,0.04688749835,-0.03657500073
22.75145012,2.914050102,-9.448950768,1.75695014,0.05389999971,0.07356250286,-0.07590000331
22.77145012,2.914050102,-9.448950768,1.75695014,0.05389999971,0.07356250286,-0.07590000331
22.79145012,2.914050102,-9.448950768,1.75695014,0.05389999971,0.07356250286,-0.07590000331
22.81145012,2.914050102,-9.448950768,1.75695014,0.05389999971,0.07356250286,-0.07590000331
22.83145012,1.650000095,-9.622050285,0.493050009,0.03533750027,0.07136250287,-0.01333750039
22.85145012,1.438950062,-9.679050446,0.03405000269,0.03533750027,0.07136250287,-0.01333750039
22.87145012,1.438950062,-9.679050446,0.03405000269,0.03533750027,0.07136250287,-0.01333750039
22.89145012,2.089950085,-9.391950607,-0.3679500222,-0.1552374959,-0.08470000327,0.2776125073
22.91145012,2.089950085,-9.391950607,-0.3679500222,-0.1552374959,-0.08470000327,0.2776125073
22.93145012,2.72205019,-9.37305069,0.6079500318,-0.3056625128,-0.1845249981,0.2282499969
22.95145012,2.72205019,-9.37305069,0.6079500318,-0.3056625128,-0.1845249981,0.2282499969
22.97145012,1.707000136,-9.352950096,0.5310000181,-0.3145999908,-0.1123374999,0.2169750035
22.99145012,1.458000064,-9.487950325,0.1680000126,-0.3145999908,-0.1123374999,0.2169750035
23.01145012,1.458000064,-9.487950325,0.1680000126,-0.3145999908,-0.1123374999,0.2169750035
23.03145012,1.497000098,-9.640950203,0.01395000052,-0.4336749911,-0.2601499856,0.4518249929
23.05145012,1.497000098,-9.640950203,0.01395000052,-0.4336749911,-0.2601499856,0.4518249929
23.07145012,1.497000098,-9.640950203,0.01395000052,-0.4336749911,-0.2601499856,0.4518249929
23.09145012,1.055999994,-9.468000412,0.3589500189,-0.4096125066,-0.1308999956,0.3926999867
23.11145012,1.055999994,-9.468000412,0.3589500189,-0.4096125066,-0.1308999956,0.3926999867
23.13145012,0.7879500389,-9.813000679,-0.5970000029,-0.2642749846,0.2243999988,0.3114374876
23.15145012,0.7879500389,-9.813000679,-0.5970000029,-0.2642749846,0.2243999988,0.3114374876
23.17145012,0.7879500389,-9.813000679,-0.5970000029,-0.2642749846,0.2243999988,0.3114374876
23.19145012,0.7879500389,-9.813000679,-0.5970000029,-0.2642749846,0.2243999988,0.3114374876
23.21145012,0.7879500389,-9.813000679,-0.5970000029,-0.2642749846,0.2243999988,0.3114374876
23.23145012,2.071050167,-9.622050285,0.6649500132,-0.3557125032,0.1600500047,0.3077250123
23.25145012,2.071050167,-9.622050285,0.6649500132,-0.3557125032,0.1600500047,0.3077250123
23.27145012,1.840950131,-9.736050606,-0.4830000103,-0.2639999986,0.3844499886,0.09061250091
23.29145012,1.840950131,-9.736050606,-0.4830000103,-0.2639999986,0.3844499886,0.09061250091
23.31145012,1.840950131,-9.736050606,-0.4830000103,-0.2639999986,0.3844499886,0.09061250091
23.33145012,1.15200007,-9.583050728,-1.383000016,-0.309512496,0.3631374836,-0.002337499987
23.35145012,1.15200007,-9.583050728,-1.383000016,-0.309512496,0.3631374836,-0.002337499987
23.37145012,1.707000136,-9.775050163,-0.9610500336,-0.5171374679,0.04523750022,-0.03464999795
23.39145012,1.707000136,-9.775050163,-0.9610500336,-0.5171374679,0.04523750022,-0.03464999795
23.41145012,1.707000136,-9.775050163,-0.9610500336,-0.5171374679,0.04523750022,-0.03464999795
23.43145012,1.707000136,-9.775050163,-0.9610500336,-0.5171374679,0.04523750022,-0.03464999795
23.45145012,1.707000136,-9.775050163,-0.9610500336,-0.5171374679,0.04523750022,-0.03464999795
23.47145012,1.420050025,-9.660000801,-1.324950099,-0.2809124887,0.3167999983,-0.04138749838
23.49145012,1.420050025,-9.660000801,-1.324950099,-0.2809124887,0.3167999983,-0.04138749838
23.51145012,1.5160501,-9.832050323,-1.708050132,-0.4178625047,0.01993750036,0.1021625027
23.53145012,1.5160501,-9.832050323,-1.708050132,-0.4178625047,0.01993750036,0.1021625027
23.55145012,1.5160501,-9.832050323,-1.708050132,-0.4178625047,0.01993750036,0.1021625027
23.57145012,1.477050066,-9.946950912,-2.244000196,-0.4345000088,-0.0910250023,0.07521250099
23.59145012,1.477050066,-9.946950912,-2.244000196,-0.4345000088,-0.0910250023,0.07521250099
23.61145012,2.338950157,-9.258000374,-1.440000057,-0.3441624939,-0.06379999965,0.02557500079
23.63145012,2.338950157,-9.258000374,-1.440000057,-0.3441624939,-0.06379999965,0.02557500079
23.65145012,2.740950108,-9.238950729,-1.324950099,-0.2908124924,-0.09707500041,-0.1526249945
23.67145012,2.703000069,-9.162000656,-1.095000029,-0.2908124924,-0.09707500041,-0.1526249945
23.69145012,2.703000069,-9.162000656,-1.095000029,-0.2908124924,-0.09707500041,-0.1526249945
23.71145012,2.242950201,-9.105000496,-0.8850000501,-0.2575374842,-0.04166249931,-0.271012485
23.73145012,2.242950201,-9.105000496,-0.8850000501,-0.2575374842,-0.04166249931,-0.271012485
23.75145012,2.148000002,-9.181050301,-1.191000104,-0.1843875051,0.1740749925,-0.3062124848
23.77145012,2.148000002,-9.181050301,-1.191000104,-0.1843875051,0.1740749925,-0.3062124848
23.79145012,2.148000002,-9.181050301,-1.191000104,-0.1843875051,0.1740749925,-0.3062124848
23.81145012,2.014050007,-9.258000374,-1.383000016,-0.0420750007,0.3711124957,-0.2574000061
23.83145012,2.014050007,-9.258000374,-1.383000016,-0.0420750007,0.3711124957,-0.2574000061
23.85145012,1.726050138,-9.352950096,-0.751050055,0.08318749815,0.4538874924,-0.2028124928
23.87145012,1.726050138,-9.352950096,-0.751050055,0.08318749815,0.4538874924,-0.2028124928
23.89145012,1.726050138,-9.352950096,-0.751050055,0.08318749815,0.4538874924,-0.2028124928
23.91145012,1.744950056,-9.448950768,-0.9040500522,0.1115124971,0.4908750057,-0.04729999974
23.93145012,1.744950056,-9.448950768,-0.9040500522,0.1115124971,0.4908750057,-0.04729999974
23.95145012,1.707000136,-9.660000801,-1.555050015,0.07507500052,0.3610749841,0.1627999991
23.97145012,1.707000136,-9.660000801,-1.555050015,0.07507500052,0.3610749841,0.1627999991
23.99145012,1.305000067,-9.162000656,-1.879950047,-0.008524999954,0.1124750003,0.2330625057
24.01145012,1.305000067,-9.162000656,-1.879950047,-0.008524999954,0.1124750003,0.2330625057
24.03145012,2.032950163,-9.583050728,-1.630950093,-0.008524999954,0.1124750003,0.2330625057
24.05145012,2.281949997,-9.334050179,-1.114050031,-0.1187999994,-0.1471250057,0.2052875012
24.07145012,2.281949997,-9.334050179,-1.114050031,-0.1187999994,-0.1471250057,0.2052875012
24.09145012,2.530950069,-9.181050301,-0.2140500098,-0.06435000151,-0.06104999781,0.1088999957
24.11145012,2.530950069,-9.181050301,-0.2140500098,-0.06435000151,-0.06104999781,0.1088999957
24.13145012,2.530950069,-9.181050301,-0.2140500098,-0.06435000151,-0.06104999781,0.1088999957
24.15145012,2.893950224,-9.009000778,-0.5590500236,0.04991250113,0.1175625026,-0.1108250022
24.17145012,2.893950224,-9.009000778,-0.5590500236,0.04991250113,0.1175625026,-0.1108250022
24.19145012,3.009000063,-9.315000534,-1.440000057,0.06008749828,0.1326874942,-0.2855874896
24.21145012,3.009000063,-9.315000534,-1.440000057,0.06008749828,0.1326874942,-0.2855874896
24.23145012,2.089950085,-9.487950325,-1.306050062,0.06503749639,0.1230624989,-0.3971000016
24.25145012,2.089950085,-9.487950325,-1.306050062,0.06503749639,0.1230624989,-0.3971000016
24.27145012,2.089950085,-9.487950325,-1.306050062,0.06503749639,0.1230624989,-0.3971000016
24.29145012,0.940950036,-9.756000519,-1.228950024,0.1731124967,0.1894749999,-0.1875499934
24.31145012,0.940950036,-9.756000519,-1.228950024,0.1731124967,0.1894749999,-0.1875499934
24.33145012,2.377050161,-9.258000374,-0.6360000372,0.1047749966,0.05733750015,0.08057499677
24.35145012,2.377050161,-9.258000374,-0.6360000372,0.1047749966,0.05733750015,0.08057499677
24.37145012,2.550000191,-9.544950485,-0.3679500222,0.04262499884,-0.05829999968,0.08236250281
24.39145012,2.434950113,-9.526050568,-0.4249500334,0.04262499884,-0.05829999968,0.08236250281
24.41145012,2.434950113,-9.526050568,-0.4249500334,0.04262499884,-0.05829999968,0.08236250281
24.43145012,2.377050161,-9.334050179,-0.5590500236,0.05967500061,-0.09735000134,0.1436875015
24.45145012,2.377050161,-9.334050179,-0.5590500236,0.05967500061,-0.09735000134,0.1436875015
24.47145012,2.377050161,-9.334050179,-0.5590500236,0.05967500061,-0.09735000134,0.1436875015
24.49145012,2.377050161,-9.334050179,-0.5590500236,0.05967500061,-0.09735000134,0.1436875015
24.51145012,2.377050161,-9.334050179,-0.5590500236,0.05967500061,-0.09735000134,0.1436875015
24.53145012,1.899000049,-9.622050285,-0.4440000355,0.2391124964,0.2134000063,-0.003849999979
24.55145012,1.899000049,-9.622050285,-0.4440000355,0.2391124964,0.2134000063,-0.003849999979
24.57145012,1.55400002,-9.832050323,-0.6739500165,0.2330625057,0.1164624989,-0.1240250021
24.59145012,1.55400002,-9.832050323,-0.6739500165,0.2330625057,0.1164624989,-0.1240250021
24.61145012,1.650000095,-9.468000412,-0.2719500065,0.2330625057,0.1164624989,-0.1240250021
24.63145012,1.78395009,-9.448950768,-0.02295000106,0.1694000065,-0.004262499977,0.01856249943
24.65145012,1.78395009,-9.448950768,-0.02295000106,0.1694000065,-0.004262499977,0.01856249943
24.67145012,1.936950088,-9.640950203,0.2820000052,0.1647250056,-0.005912499968,0.1527625024
24.69145012,1.936950088,-9.640950203,0.2820000052,0.1647250056,-0.005912499968,0.1527625024
24.71145012,1.899000049,-9.601950645,0.2059500068,0.2242625058,0.09350000322,0.1725624949
24.73145012,1.918050051,-9.56400013,0.1480500102,0.2242625058,0.09350000322,0.1725624949
24.75145012,1.918050051,-9.56400013,0.1480500102,0.2242625058,0.09350000322,0.1725624949
24.77145012,2.185950041,-9.468000412,0.1480500102,0.2040500045,0.06476250291,0.1611499935
24.79145012,2.185950041,-9.468000412,0.1480500102,0.2040500045,0.06476250291,0.1611499935
24.81145012,2.224050045,-9.640950203,0.2629500031,0.227562502,0.0984499976,0.07122500241
24.83145012,2.224050045,-9.640950203,0.2629500031,0.227562502,0.0984499976,0.07122500241
24.85145012,2.224050045,-9.640950203,0.2629500031,0.227562502,0.0984499976,0.07122500241
24.87145012,2.109000206,-9.411000252,0.3970500231,0.2579500079,0.1502874941,-0.1042250022
24.89145012,2.109000206,-9.411000252,0.3970500231,0.2579500079,0.1502874941,-0.1042250022
24.91145012,2.167050123,-9.622050285,0.4360500276,0.2125750035,0.09281250089,-0.1143999994
24.93145012,2.167050123,-9.622050285,0.4360500276,0.2125750035,0.09281250089,-0.1143999994
24.95145012,2.167050123,-9.622050285,0.4360500276,0.2125750035,0.09281250089,-0.1143999994
24.97145012,2.338950157,-9.583050728,0.4740000367,0.1790249944,-0.003574999981,-0.1170125008
24.99145012,2.338950157,-9.583050728,0.4740000367,0.1790249944,-0.003574999981,-0.1170125008
25.01145012,2.320050001,-9.622050285,0.6079500318,0.1835625023,-0.04193750024,-0.1240250021
25.03145012,2.320050001,-9.622050285,0.6079500318,0.1835625023,-0.04193750024,-0.1240250021
25.05145012,2.242950201,-9.487950325,0.7230000496,0.1903000027,0.03244999796,-0.0859375
25.07145012,2.242950201,-9.487950325,0.7230000496,0.1903000027,0.03244999796,-0.0859375
25.09145012,2.148000002,-9.468000412,0.9340500236,0.1832875013,0.06710000336,-0.05293750018
25.11145012,2.167050123,-9.507000923,1.029000044,0.1832875013,0.06710000336,-0.05293750018
25.13145012,2.167050123,-9.507000923,1.029000044,0.1832875013,0.06710000336,-0.05293750018
25.15145012,2.205000162,-9.37305069,1.182000041,0.2283875048,0.05376249924,-0.03396249935
25.17145012,2.205000162,-9.37305069,1.182000041,0.2283875048,0.05376249924,-0.03396249935
25.19145012,2.205000162,-9.37305069,1.182000041,0.2283875048,0.05376249924,-0.03396249935
25.21145012,2.128050089,-9.526050568,1.297050118,0.2587749958,0.1292500049,-0.03313750029
25.23145012,2.128050089,-9.526050568,1.297050118,0.2587749958,0.1292500049,-0.03313750029
25.25145012,2.071050167,-9.43005085,1.336050034,0.2633124888,0.189337492,-0.01388750039
25.27145012,2.071050167,-9.43005085,1.336050034,0.2633124888,0.189337492,-0.01388750039
25.29145012,2.071050167,-9.43005085,1.336050034,0.2633124888,0.189337492,-0.01388750039
25.31145012,2.071050167,-9.43005085,1.336050034,0.2633124888,0.189337492,-0.01388750039
25.33145012,2.071050167,-9.43005085,1.336050034,0.2633124888,0.189337492,-0.01388750039
25.35145012,2.511000156,-9.870000839,1.162950039,0.2600125074,0.09707500041,-0.01127499994
25.37145012,2.511000156,-9.870000839,1.162950039,0.2600125074,0.09707500041,-0.01127499994
25.39145012,2.032950163,-9.832050323,0.2250000089,0.1715999991,-0.1141249985,-0.0373999998
25.41145012,2.032950163,-9.832050323,0.2250000089,0.1715999991,-0.1141249985,-0.0373999998
25.43145012,2.052000046,-9.717000008,-0.2530499995,-0.01883750036,-0.455262512,0.04262499884
25.45145012,2.262000084,-9.487950325,0.109950006,-0.01883750036,-0.455262512,0.04262499884
25.47145012,2.262000084,-9.487950325,0.109950006,-0.01883750036,-0.455262512,0.04262499884
25.49145012,2.416050196,-9.219000816,1.623000026,-0.09459999949,-0.5222250223,0.02846249938
25.51145012,2.416050196,-9.219000816,1.623000026,-0.09459999949,-0.5222250223,0.02846249938
25.53145012,2.416050196,-9.219000816,1.623000026,-0.09459999949,-0.5222250223,0.02846249938
25.55145012,2.416050196,-9.219000816,1.623000026,-0.09459999949,-0.5222250223,0.02846249938
25.57145012,2.416050196,-9.219000816,1.623000026,-0.09459999949,-0.5222250223,0.02846249938
25.59145012,2.626050234,-9.717000008,1.374000072,0.0251624994,-0.1443749964,-0.02956249937
25.61145012,2.626050234,-9.717000008,1.374000072,0.0251624994,-0.1443749964,-0.02956249937
25.63145012,2.66505003,-9.487950325,0.913950026,0.04111250117,0.0356125012,-0.05555000156
25.65145012,2.66505003,-9.487950325,0.913950026,0.04111250117,0.0356125012,-0.05555000156
25.67145012,2.66505003,-9.487950325,0.913950026,0.04111250117,0.0356125012,-0.05555000156
25.69145012,1.993950129,-9.487950325,0.8190000653,0.09624999762,0.2862749994,-0.1747625023
25.71145012,1.993950129,-9.487950325,0.8190000653,0.09624999762,0.2862749994,-0.1747625023
25.73145012,1.650000095,-9.258000374,1.489050031,0.08181250095,0.3096500039,-0.07851249725
25.75145012,1.650000095,-9.258000374,1.489050031,0.08181250095,0.3096500039,-0.07851249725
25.77145012,1.650000095,-9.258000374,1.489050031,0.08181250095,0.3096500039,-0.07851249725
25.79145012,2.416050196,-9.448950768,1.623000026,0.0305249989,0.2825624943,0.098862499
25.81145012,2.416050196,-9.448950768,1.623000026,0.0305249989,0.2825624943,0.098862499
25.83145012,2.338950157,-9.697950363,0.7230000496,-0.02268750034,0.2039124966,0.05596249923
25.85145012,2.338950157,-9.697950363,0.7230000496,-0.02268750034,0.2039124966,0.05596249923
25.87145012,2.205000162,-9.736050606,0.4360500276,-0.1189374998,0.08841250092,0.07479999959
25.89145012,2.205000162,-9.736050606,0.4360500276,-0.1189374998,0.08841250092,0.07479999959
25.91145012,2.205000162,-9.736050606,0.4360500276,-0.1189374998,0.08841250092,0.07479999959
25.93145012,2.473050117,-9.56400013,-0.1380000114,-0.1828749925,0.03258749843,0.1113749966
25.95145012,2.473050117,-9.56400013,-0.1380000114,-0.1828749925,0.03258749843,0.1113749966
25.97145012,2.397000074,-9.487950325,0.780000031,-0.236499995,-0.1170125008,0.03286249936
25.99145012,2.397000074,-9.487950325,0.780000031,-0.236499995,-0.1170125008,0.03286249936
26.01145012,2.397000074,-9.487950325,0.780000031,-0.236499995,-0.1170125008,0.03286249936
26.03145012,2.167050123,-9.411000252,1.393050075,-0.2202749997,-0.1557874978,-0.1208624989
26.05145012,2.167050123,-9.411000252,1.393050075,-0.2202749997,-0.1557874978,-0.1208624989
26.07145012,2.032950163,-9.56400013,0.8950500488,-0.1694000065,-0.0556874983,-0.0734250024
26.09145012,2.032950163,-9.56400013,0.8950500488,-0.1694000065,-0.0556874983,-0.0734250024
26.11145012,2.185950041,-9.56400013,0.3970500231,-0.1216875017,0.05582499877,-0.002337499987
26.13145012,2.185950041,-9.56400013,0.3970500231,-0.1216875017,0.05582499877,-0.002337499987
26.15145012,2.185950041,-9.56400013,0.3970500231,-0.1216875017,0.05582499877,-0.002337499987
26.17145012,2.320050001,-9.583050728,0.3019500077,-0.09501250088,0.1435499936,-0.004399999976
26.19145012,2.320050001,-9.583050728,0.3019500077,-0.09501250088,0.1435499936,-0.004399999976
26.21145012,1.936950088,-9.43005085,0.5700000525,-0.03918749839,0.2876499891,0.03148749843
26.23145012,1.936950088,-9.43005085,0.5700000525,-0.03918749839,0.2876499891,0.03148749843
26.25145012,1.936950088,-9.43005085,0.5700000525,-0.03918749839,0.2876499891,0.03148749843
26.27145012,2.416050196,-9.391950607,0.3970500231,-0.07039999962,0.2561624944,0.07053750008
26.29145012,2.416050196,-9.391950607,0.3970500231,-0.07039999962,0.2561624944,0.07053750008
26.31145012,2.72205019,-9.43005085,0.5890500546,-0.2037750036,0.02117500082,0.02681249939
26.33145012,2.72205019,-9.43005085,0.5890500546,-0.2037750036,0.02117500082,0.02681249939
26.35145012,2.224050045,-9.697950363,0.6079500318,-0.1423124969,0.01897500083,-0.08071249723
26.37145012,2.224050045,-9.697950363,0.6079500318,-0.1423124969,0.01897500083,-0.08071249723
26.39145012,2.224050045,-9.697950363,0.6079500318,-0.1423124969,0.01897500083,-0.08071249723
26.41145012,1.55400002,-9.601950645,0.05295000225,-0.08002500236,0.06297499686,-0.02639999986
26.43145012,1.55400002,-9.601950645,0.05295000225,-0.08002500236,0.06297499686,-0.02639999986
26.45145012,2.530950069,-9.601950645,0.1680000126,-0.07699999958,0.0937749967,0.0873124972
26.47145012,2.530950069,-9.601950645,0.1680000126,-0.07699999958,0.0937749967,0.0873124972
26.49145012,2.914050102,-9.391950607,0.5310000181,-0.102987498,0.05816249922,0.00742499996
26.51145012,2.893950224,-9.352950096,0.6270000339,-0.102987498,0.05816249922,0.00742499996
26.53145012,2.893950224,-9.352950096,0.6270000339,-0.102987498,0.05816249922,0.00742499996
26.55145012,2.242950201,-9.526050568,0.7990500331,-0.05981250107,0.06270000339,-0.07768750191
26.57145012,2.242950201,-9.526050568,0.7990500331,-0.05981250107,0.06270000339,-0.07768750191
26.59145012,2.242950201,-9.526050568,0.7990500331,-0.05981250107,0.06270000339,-0.07768750191
26.61145012,2.242950201,-9.526050568,0.7990500331,-0.05981250107,0.06270000339,-0.07768750191
26.63145012,2.242950201,-9.526050568,0.7990500331,-0.05981250107,0.06270000339,-0.07768750191
26.65145012,2.224050045,-9.660000801,0.3589500189,-0.007699999958,0.1357125044,-0.0380874984
26.67145012,2.224050045,-9.660000801,0.3589500189,-0.007699999958,0.1357125044,-0.0380874984
26.69145012,1.993950129,-9.583050728,0.5890500546,0.04042499885,0.1000999957,-0.1212750003
26.71145012,1.993950129,-9.583050728,0.5890500546,0.04042499885,0.1000999957,-0.1212750003
26.73145012,1.993950129,-9.583050728,0.5890500546,0.04042499885,0.1000999957,-0.1212750003
26.75145012,1.803000093,-9.507000923,0.8950500488,0.0808499977,0.105187498,-0.02007500082
26.77145012,1.803000093,-9.507000923,0.8950500488,0.0808499977,0.105187498,-0.02007500082
26.79145012,1.860000134,-9.583050728,0.9720000625,0.07163749635,0.1626625061,0.2201374918
26.81145012,1.860000134,-9.583050728,0.9720000625,0.07163749635,0.1626625061,0.2201374918
26.83145012,1.860000134,-9.583050728,0.9720000625,0.07163749635,0.1626625061,0.2201374918
26.85145012,2.014050007,-9.601950645,0.780000031,0.07548750192,0.1509750038,0.1748999953
26.87145012,2.014050007,-9.601950645,0.780000031,0.07548750192,0.1509750038,0.1748999953
26.89145012,2.089950085,-9.526050568,0.6079500318,0.09033749998,0.1044999957,0.1379124969
26.91145012,2.089950085,-9.526050568,0.6079500318,0.09033749998,0.1044999957,0.1379124969
26.93145012,2.205000162,-9.526050568,0.7609500289,0.1112374961,0.07878749818,0.0910250023
26.95145012,2.205000162,-9.526050568,0.7609500289,0.1112374961,0.07878749818,0.0910250023
26.97145012,2.205000162,-9.526050568,0.7609500289,0.1112374961,0.07878749818,0.0910250023
26.99145012,2.109000206,-9.544950485,0.8380500674,0.09281250089,0.04991250113,0.0309375003
27.01145012,2.109000206,-9.544950485,0.8380500674,0.09281250089,0.04991250113,0.0309375003
27.03145012,2.052000046,-9.56400013,0.780000031,0.05829999968,-0.01691249944,-0.04716249928
27.05145012,2.052000046,-9.56400013,0.780000031,0.05829999968,-0.01691249944,-0.04716249928
27.07145012,2.052000046,-9.56400013,0.780000031,0.05829999968,-0.01691249944,-0.04716249928
27.09145012,2.052000046,-9.507000923,0.8380500674,0.01484999992,-0.1003749967,-0.03767500073
27.11145012,2.052000046,-9.507000923,0.8380500674,0.01484999992,-0.1003749967,-0.03767500073
27.13145012,1.936950088,-9.56400013,0.9529500604,0.01979999989,-0.07039999962,-0.03189999983
27.15145012,1.936950088,-9.56400013,0.9529500604,0.01979999989,-0.07039999962,-0.03189999983
27.17145012,1.744950056,-9.544950485,0.913950026,0.0369874984,0.02791249938,-0.0008249999955
27.19145012,1.744950056,-9.544950485,0.913950026,0.0369874984,0.02791249938,-0.0008249999955
27.21145012,1.744950056,-9.544950485,0.913950026,0.0369874984,0.02791249938,-0.0008249999955
27.23145012,1.860000134,-9.583050728,0.9720000625,0.0257124994,0.07136250287,0.1025749967
27.25145012,1.860000134,-9.583050728,0.9720000625,0.0257124994,0.07136250287,0.1025749967
27.27145012,2.032950163,-9.679050446,0.913950026,0.04702499881,0.03616249934,0.08098749816
27.29145012,2.032950163,-9.679050446,0.913950026,0.04702499881,0.03616249934,0.08098749816
27.31145012,1.993950129,-9.640950203,0.7990500331,0.04179999977,0.05059999973,0.05197500065
27.33145012,1.975050092,-9.622050285,0.7990500331,0.04179999977,0.05059999973,0.05197500065
27.35145012,1.975050092,-9.622050285,0.7990500331,0.04179999977,0.05059999973,0.05197500065
27.37145012,1.993950129,-9.583050728,0.8569500446,0.01581249945,0.06599999964,0.03327500075
27.39145012,1.993950129,-9.583050728,0.8569500446,0.01581249945,0.06599999964,0.03327500075
27.41145012,1.993950129,-9.56400013,0.913950026,0.003849999979,0.04193750024,0.01539999992
27.43145012,1.993950129,-9.56400013,0.913950026,0.003849999979,0.04193750024,0.01539999992
27.45145012,1.993950129,-9.56400013,0.913950026,0.003849999979,0.04193750024,0.01539999992
27.47145012,2.014050007,-9.622050285,0.913950026,-0.0004124999978,0.03396249935,-0.06366249919
27.49145012,2.014050007,-9.622050285,0.913950026,-0.0004124999978,0.03396249935,-0.06366249919
27.51145012,2.014050007,-9.56400013,0.8380500674,-0.009899999946,0.03987500072,-0.04743750021
27.53145012,2.014050007,-9.56400013,0.8380500674,-0.009899999946,0.03987500072,-0.04743750021
27.55145012,2.014050007,-9.56400013,0.8380500674,-0.009899999946,0.03987500072,-0.04743750021
27.57145012,1.993950129,-9.544950485,0.913950026,-0.01086249948,0.02172499895,-0.03079999983
27.59145012,1.993950129,-9.544950485,0.913950026,-0.01086249948,0.02172499895,-0.03079999983
27.61145012,1.936950088,-9.622050285,0.8760000467,-0.005637499969,0.05458749831,-0.01911249943
27.63145012,1.936950088,-9.622050285,0.8760000467,-0.005637499969,0.05458749831,-0.01911249943
27.65145012,1.993950129,-9.544950485,0.8190000653,-0.003299999982,0.05871250108,-0.007149999961
27.67145012,1.993950129,-9.544950485,0.8190000653,-0.003299999982,0.05871250108,-0.007149999961
27.69145012,1.993950129,-9.544950485,0.8190000653,-0.003299999982,0.05871250108,-0.007149999961
27.71145012,2.032950163,-9.583050728,0.8569500446,-0.01828750037,0.02846249938,-0.0009624999948
27.73145012,2.032950163,-9.583050728,0.8569500446,-0.01828750037,0.02846249938,-0.0009624999948
27.75145012,1.975050092,-9.601950645,0.8380500674,-0.03066249937,0.03478749841,-0.002062499989
27.77145012,1.975050092,-9.601950645,0.8380500674,-0.03066249937,0.03478749841,-0.002062499989
27.79145012,1.975050092,-9.601950645,0.8380500674,-0.03066249937,0.03478749841,-0.002062499989
27.81145012,1.993950129,-9.507000923,0.780000031,-0.02502499893,0.04138749838,0.003024999984
27.83145012,1.993950129,-9.507000923,0.780000031,-0.02502499893,0.04138749838,0.003024999984
27.85145012,2.052000046,-9.56400013,0.8190000653,-0.03217500076,-0.01374999993,0.0009624999948
27.87145012,2.052000046,-9.56400013,0.8190000653,-0.03217500076,-0.01374999993,0.0009624999948
27.89145012,1.993950129,-9.583050728,0.8190000653,-0.02364999987,-0.06503749639,-0.009899999946
27.91145012,1.993950129,-9.583050728,0.8190000653,-0.02364999987,-0.06503749639,-0.009899999946
27.93145012,1.993950129,-9.583050728,0.8190000653,-0.02364999987,-0.06503749639,-0.009899999946
27.95145012,1.993950129,-9.583050728,0.7609500289,-0.01292499993,-0.05059999973,-0.004537499975
27.97145012,1.993950129,-9.583050728,0.7609500289,-0.01292499993,-0.05059999973,-0.004537499975
27.99145012,2.014050007,-9.583050728,0.780000031,-0.01347499993,-0.04688749835,0.00371249998
28.01145012,2.014050007,-9.583050728,0.780000031,-0.01347499993,-0.04688749835,0.00371249998
28.03145012,2.014050007,-9.56400013,0.7039500475,-0.01801249944,-0.05444999784,0.0006874999963
28.05145012,2.032950163,-9.544950485,0.6649500132,-0.01801249944,-0.05444999784,0.0006874999963
28.07145012,2.032950163,-9.544950485,0.6649500132,-0.01801249944,-0.05444999784,0.0006874999963
28.09145012,2.167050123,-9.544950485,0.6649500132,-0.02364999987,-0.03396249935,-0.003987499978
28.11145012,2.167050123,-9.544950485,0.6649500132,-0.02364999987,-0.03396249935,-0.003987499978
28.13145012,2.167050123,-9.544950485,0.6649500132,-0.02364999987,-0.03396249935,-0.003987499978
28.15145012,2.167050123,-9.544950485,0.7230000496,-0.04111250117,-0.0001374999993,-0.03121249937
28.17145012,2.167050123,-9.544950485,0.7230000496,-0.04111250117,-0.0001374999993,-0.03121249937
28.19145012,2.148000002,-9.56400013,0.7039500475,-0.04193750024,0.009899999946,-0.05513750017
28.21145012,2.148000002,-9.56400013,0.7039500475,-0.04193750024,0.009899999946,-0.05513750017
28.23145012,2.089950085,-9.544950485,0.6649500132,-0.04413750023,-0.005912499968,-0.05169999972
28.25145012,2.089950085,-9.544950485,0.6649500132,-0.04413750023,-0.005912499968,-0.05169999972
28.27145012,2.089950085,-9.544950485,0.6649500132,-0.04413750023,-0.005912499968,-0.05169999972
28.29145012,2.167050123,-9.56400013,0.6270000339,-0.04702499881,0.006462499965,-0.04647500068
28.31145012,2.167050123,-9.56400013,0.6270000339,-0.04702499881,0.006462499965,-0.04647500068
28.33145012,2.205000162,-9.56400013,0.7039500475,-0.03533750027,0.02749999985,-0.04867500067
28.35145012,2.205000162,-9.56400013,0.7039500475,-0.03533750027,0.02749999985,-0.04867500067
28.37145012,2.224050045,-9.544950485,0.6649500132,-0.02529999986,0.02997500077,-0.03341250122
28.39145012,2.205000162,-9.487950325,0.6270000339,-0.02529999986,0.02997500077,-0.03341250122
28.41145012,2.205000162,-9.487950325,0.6270000339,-0.02529999986,0.02997500077,-0.03341250122
28.43145012,2.205000162,-9.526050568,0.6079500318,-0.02254999988,-0.006874999963,-0.0246124994
28.45145012,2.205000162,-9.526050568,0.6079500318,-0.02254999988,-0.006874999963,-0.0246124994
28.47145012,2.205000162,-9.526050568,0.6079500318,-0.02254999988,-0.006874999963,-0.0246124994
28.49145012,2.205000162,-9.526050568,0.6079500318,-0.02254999988,-0.006874999963,-0.0246124994
28.51145012,2.205000162,-9.526050568,0.6079500318,-0.02254999988,-0.006874999963,-0.0246124994
28.53145012,2.148000002,-9.468000412,0.6079500318,-0.01251249947,-0.03932499886,-0.05224999785
28.55145012,2.148000002,-9.468000412,0.6079500318,-0.01251249947,-0.03932499886,-0.05224999785
28.57145012,2.089950085,-9.56400013,0.7039500475,-0.01182499994,-0.04097500071,-0.03712499887
28.59145012,2.089950085,-9.56400013,0.7039500475,-0.01182499994,-0.04097500071,-0.03712499887
28.61145012,2.089950085,-9.56400013,0.7039500475,-0.01182499994,-0.04097500071,-0.03712499887
28.63145012,2.052000046,-9.468000412,0.6270000339,-0.00371249998,-0.02914999984,-0.007149999961
28.65145012,2.052000046,-9.468000412,0.6270000339,-0.00371249998,-0.02914999984,-0.007149999961
28.67145012,2.167050123,-9.583050728,0.5700000525,-0.00371249998,-0.009487500414,0.02378750034
28.69145012,2.167050123,-9.583050728,0.5700000525,-0.00371249998,-0.009487500414,0.02378750034
28.71145012,2.128050089,-9.56400013,0.5509500504,-0.01154999994,-0.01677500084,0.02474999987
28.71145012,2.128050089,-9.56400013,0.5509500504,-0.01154999994,-0.01677500084,0.02474999987
28.75145012,2.128050089,-9.56400013,0.5509500504,-0.01154999994,-0.01677500084,0.02474999987
28.77145012,2.052000046,-9.56400013,0.5700000525,-0.01539999992,-0.01911249943,0.04537500069
28.79145012,2.052000046,-9.56400013,0.5700000525,-0.01539999992,-0.01911249943,0.04537500069
28.81145012,2.052000046,-9.601950645,0.6270000339,-0.006599999964,-0.03863750026,0.05651250109
28.83145012,2.052000046,-9.601950645,0.6270000339,-0.006599999964,-0.03863750026,0.05651250109
28.85145012,2.052000046,-9.601950645,0.6270000339,-0.006599999964,-0.03863750026,0.05651250109
28.87145012,2.032950163,-9.526050568,0.646050036,-0.001512499992,-0.0669625029,0.04523750022
28.89145012,2.032950163,-9.526050568,0.646050036,-0.001512499992,-0.0669625029,0.04523750022
28.91145012,2.109000206,-9.601950645,0.646050036,0.01072499994,-0.08923749626,0.03299999982
28.93145012,2.109000206,-9.601950645,0.646050036,0.01072499994,-0.08923749626,0.03299999982
28.95145012,2.109000206,-9.544950485,0.6270000339,0.02901249938,-0.07452499866,0.02309999987
28.97145012,2.109000206,-9.544950485,0.6270000339,0.02901249938,-0.07452499866,0.02309999987
28.99145012,2.109000206,-9.544950485,0.6270000339,0.02901249938,-0.07452499866,0.02309999987
29.01145012,2.071050167,-9.660000801,0.6079500318,0.03753750026,-0.06476250291,0.01484999992
29.03145012,2.071050167,-9.660000801,0.6079500318,0.03753750026,-0.06476250291,0.01484999992
29.05145012,1.993950129,-9.526050568,0.6079500318,0.04441250116,-0.1068374962,0.01636249945
29.07145012,1.993950129,-9.526050568,0.6079500318,0.04441250116,-0.1068374962,0.01636249945
29.09145012,1.993950129,-9.526050568,0.6079500318,0.04441250116,-0.1068374962,0.01636249945
29.11145012,2.032950163,-9.601950645,0.7230000496,0.04028749838,-0.124712497,0.02227500081
29.13145012,2.032950163,-9.601950645,0.7230000496,0.04028749838,-0.124712497,0.02227500081
29.15145012,1.975050092,-9.56400013,0.780000031,0.04784999788,-0.1325500011,0.03355000168
29.17145012,1.975050092,-9.56400013,0.780000031,0.04784999788,-0.1325500011,0.03355000168
29.19145012,1.975050092,-9.583050728,0.7990500331,0.07493750006,-0.1324124932,0.05307500064
29.21145012,1.975050092,-9.583050728,0.7609500289,0.07493750006,-0.1324124932,0.05307500064
29.23145012,1.975050092,-9.583050728,0.7609500289,0.07493750006,-0.1324124932,0.05307500064
29.25145012,1.899000049,-9.601950645,0.7039500475,0.06957499683,-0.1359875053,0.06379999965
29.27145012,1.899000049,-9.601950645,0.7039500475,0.06957499683,-0.1359875053,0.06379999965
29.29145012,1.860000134,-9.56400013,0.7420500517,0.05953750014,-0.1156374961,0.06242499873
29.31145012,1.860000134,-9.56400013,0.7420500517,0.05953750014,-0.1156374961,0.06242499873
29.33145012,1.860000134,-9.56400013,0.7420500517,0.05953750014,-0.1156374961,0.06242499873
29.35145012,1.899000049,-9.56400013,0.8569500446,0.06627500057,-0.07975000143,0.06448750198
29.37145012,1.899000049,-9.56400013,0.8569500446,0.06627500057,-0.07975000143,0.06448750198
29.39145012,1.993950129,-9.56400013,0.7990500331,0.05623750016,-0.02488750033,0.04606249928
29.41145012,1.993950129,-9.56400013,0.7990500331,0.05623750016,-0.02488750033,0.04606249928
29.43145012,1.993950129,-9.56400013,0.7990500331,0.05623750016,-0.02488750033,0.04606249928
29.45145012,2.014050007,-9.583050728,0.7420500517,0.03217500076,-0.02351249941,0.02007500082
29.47145012,2.014050007,-9.583050728,0.7420500517,0.03217500076,-0.02351249941,0.02007500082
29.49145012,1.918050051,-9.56400013,0.780000031,0.02997500077,-0.05802499875,0.005637499969
29.51145012,1.918050051,-9.56400013,0.780000031,0.02997500077,-0.05802499875,0.005637499969
29.53145012,1.936950088,-9.583050728,0.8190000653,0.04606249928,-0.05403750017,0.001512499992
29.55145012,1.936950088,-9.583050728,0.8190000653,0.04606249928,-0.05403750017,0.001512499992
29.57145012,1.936950088,-9.583050728,0.8190000653,0.04606249928,-0.05403750017,0.001512499992
29.59145012,1.918050051,-9.640950203,0.7609500289,0.03437500075,-0.07026249915,-0.007149999961
29.61145012,1.918050051,-9.640950203,0.7609500289,0.03437500075,-0.07026249915,-0.007149999961
29.63145012,1.840950131,-9.601950645,0.780000031,0.02351249941,-0.1214125007,0.003849999979
29.65145012,1.840950131,-9.601950645,0.780000031,0.02351249941,-0.1214125007,0.003849999979
29.67145012,1.840950131,-9.601950645,0.780000031,0.02351249941,-0.1214125007,0.003849999979
29.69145012,1.860000134,-9.622050285,0.8380500674,0.02241249941,-0.1086250022,0.03368749842
29.71145012,1.860000134,-9.622050285,0.8380500674,0.02241249941,-0.1086250022,0.03368749842
29.73145012,1.879950047,-9.583050728,0.7609500289,0.01842499897,-0.06751249731,0.04193750024
29.75145012,1.879950047,-9.583050728,0.7609500289,0.01842499897,-0.06751249731,0.04193750024
29.77145012,1.860000134,-9.622050285,0.7990500331,0.01264999993,-0.0556874983,0.03286249936
29.79145012,1.860000134,-9.622050285,0.7990500331,0.01264999993,-0.0556874983,0.03286249936
29.81145012,1.860000134,-9.622050285,0.7990500331,0.01264999993,-0.0556874983,0.03286249936
29.83145012,1.899000049,-9.622050285,0.8569500446,0.006874999963,-0.02144999988,0.02956249937
29.85145012,1.899000049,-9.622050285,0.8569500446,0.006874999963,-0.02144999988,0.02956249937
29.87145012,1.899000049,-9.583050728,0.780000031,0.01196249947,0.05266249925,0.01429999992
29.89145012,1.899000049,-9.583050728,0.780000031,0.01196249947,0.05266249925,0.01429999992
29.91145012,1.860000134,-9.56400013,0.7990500331,0.004124999978,0.03684999794,0.00371249998
29.93145012,1.860000134,-9.622050285,0.8569500446,0.004124999978,0.03684999794,0.00371249998
29.95145012,1.860000134,-9.622050285,0.8569500446,0.004124999978,0.03684999794,0.00371249998
29.97145012,1.860000134,-9.56400013,0.8569500446,-0.001237499993,0.04743750021,-0.000549999997
29.99145012,1.860000134,-9.56400013,0.8569500446,-0.001237499993,0.04743750021,-0.000549999997
30.01145012,1.860000134,-9.56400013,0.8569500446,-0.001237499993,0.04743750021,-0.000549999997
30.03145012,1.860000134,-9.56400013,0.8569500446,-0.001237499993,0.04743750021,-0.000549999997
30.05145012,1.860000134,-9.56400013,0.8569500446,-0.001237499993,0.04743750021,-0.000549999997
30.07145012,1.879950047,-9.583050728,0.8569500446,0.005637499969,0.04771250114,-0.008524999954
30.09145012,1.879950047,-9.583050728,0.8569500446,0.005637499969,0.04771250114,-0.008524999954
30.11145012,1.95600009,-9.583050728,0.7990500331,0.004812499974,0.02942499891,-0.006874999963
30.13145012,1.95600009,-9.583050728,0.7990500331,0.004812499974,0.02942499891,-0.006874999963
30.15145012,1.95600009,-9.583050728,0.7990500331,0.004812499974,0.02942499891,-0.006874999963
30.17145012,2.052000046,-9.601950645,0.7609500289,0.0009624999948,0.02956249937,-0.01718750037
30.19145012,2.052000046,-9.601950645,0.7609500289,0.0009624999948,0.02956249937,-0.01718750037
30.21145012,1.993950129,-9.660000801,0.7420500517,-0.02351249941,0.05513750017,-0.04455000162
30.23145012,1.993950129,-9.660000801,0.7420500517,-0.02351249941,0.05513750017,-0.04455000162
30.25145012,1.899000049,-9.679050446,0.8380500674,-0.04826249927,0.09872499853,-0.04564999789
30.27145012,1.860000134,-9.660000801,0.8190000653,-0.04826249927,0.09872499853,-0.04564999789
30.29145012,1.860000134,-9.660000801,0.8190000653,-0.04826249927,0.09872499853,-0.04564999789
30.31145012,1.840950131,-9.43005085,0.8190000653,-0.0607750006,0.1494625062,-0.03492499888
30.33145012,1.840950131,-9.43005085,0.8190000653,-0.0607750006,0.1494625062,-0.03492499888
30.35145012,1.95600009,-9.526050568,0.8760000467,-0.06352499872,0.2128500044,-0.02749999985
30.37145012,1.95600009,-9.526050568,0.8760000467,-0.06352499872,0.2128500044,-0.02749999985
30.39145012,1.95600009,-9.526050568,0.8760000467,-0.06352499872,0.2128500044,-0.02749999985
30.41145012,1.860000134,-9.601950645,0.7990500331,-0.05582499877,0.2268749923,-0.01374999993
30.43145012,1.860000134,-9.601950645,0.7990500331,-0.05582499877,0.2268749923,-0.01374999993
30.45145012,1.879950047,-9.583050728,0.7990500331,-0.03244999796,0.2107875049,0.0246124994
30.47145012,1.879950047,-9.583050728,0.7990500331,-0.03244999796,0.2107875049,0.0246124994
30.49145012,1.936950088,-9.544950485,0.8190000653,-0.01801249944,0.1530375034,0.02364999987
30.51145012,1.936950088,-9.583050728,0.7609500289,-0.01801249944,0.1530375034,0.02364999987
30.53145012,1.936950088,-9.583050728,0.7609500289,-0.01801249944,0.1530375034,0.02364999987
30.55145012,1.95600009,-9.583050728,0.8190000653,-0.0122375004,0.1038125008,0.01113750041
30.57145012,1.95600009,-9.583050728,0.8190000653,-0.0122375004,0.1038125008,0.01113750041
30.59145012,1.95600009,-9.583050728,0.8190000653,-0.0122375004,0.1038125008,0.01113750041
30.61145012,1.95600009,-9.583050728,0.8190000653,-0.0122375004,0.1038125008,0.01113750041
30.63145012,1.95600009,-9.583050728,0.8190000653,-0.0122375004,0.1038125008,0.01113750041
30.65145012,1.879950047,-9.622050285,0.7990500331,-0.005224999972,0.03918749839,-0.02351249941
30.67145012,1.879950047,-9.622050285,0.7990500331,-0.005224999972,0.03918749839,-0.02351249941
30.69145012,1.744950056,-9.583050728,0.8569500446,-0.001237499993,0.02928750031,-0.01209999993
30.71145012,1.744950056,-9.583050728,0.8569500446,-0.001237499993,0.02928750031,-0.01209999993
30.73145012,1.744950056,-9.583050728,0.8569500446,-0.001237499993,0.02928750031,-0.01209999993
30.75145012,1.993950129,-9.56400013,0.780000031,0.0004124999978,0.06311249733,0.003987499978
30.77145012,1.993950129,-9.56400013,0.780000031,0.0004124999978,0.06311249733,0.003987499978
30.79145012,2.109000206,-9.601950645,0.7609500289,-0.006462499965,0.06572499871,-0.004674999975
30.81145012,2.109000206,-9.601950645,0.7609500289,-0.006462499965,0.06572499871,-0.004674999975
30.83145012,2.089950085,-9.583050728,0.7420500517,-0.02034999989,0.03135000169,-0.02997500077
30.85145012,2.089950085,-9.583050728,0.7420500517,-0.02034999989,0.03135000169,-0.02997500077
30.87145012,2.089950085,-9.583050728,0.7420500517,-0.02034999989,0.03135000169,-0.02997500077
30.89145012,2.014050007,-9.601950645,0.8380500674,-0.01938750036,0.04564999789,-0.02804999985
30.91145012,2.014050007,-9.601950645,0.8380500674,-0.01938750036,0.04564999789,-0.02804999985
30.93145012,2.014050007,-9.622050285,0.6649500132,-0.01622499898,0.04427500069,-0.05417500064
30.95145012,2.014050007,-9.622050285,0.6649500132,-0.01622499898,0.04427500069,-0.05417500064
